,SubNum,Include,level_0,index,trial_type,trial_index,time_elapsed,rt,response,control_level,task_id,screen_id,difference,Key_Release_sim_x,Key_Release_sim_y,Key_Release_p1_x,Key_Release_p1_y,Correlation_x,Correlation_y,block
0,1,1,0,22,html-slider-response,22,126372,4153.0,8.0,0.0,question_agency,question_agency_line_inverted,8.0,10.0,7.0,10.0,16.0,-0.06072238190075458,-0.4253325668653431,1
1,1,1,1,62,html-slider-response,62,299644,4434.0,0.0,0.0,question_agency,question_agency_line_inverted,0.0,8.0,6.0,11.0,4.0,0.2848141319148493,-0.17864664834524308,2
4,1,1,4,117,html-slider-response,117,546749,4581.0,0.0,0.0,question_agency,question_agency_line_inverted,0.0,9.0,8.0,0.0,0.0,0.0,0.0,3
3,1,1,3,154,html-slider-response,154,725156,4233.0,0.0,0.0,question_agency,question_agency_line_inverted,0.0,9.0,8.0,7.0,3.0,0.2988489165446168,0.2139499720225767,4
2,1,1,2,167,html-slider-response,167,784857,6604.0,0.0,0.0,question_agency,question_agency_line_inverted,0.0,5.0,6.0,11.0,9.0,-0.008623512066003045,0.06474811771633314,5
7,1,1,7,40,html-slider-response,40,204899,6000.0,36.0,0.1,question_agency,question_agency_line_inverted,26.0,7.0,7.0,7.0,8.0,0.47562434301051826,-0.0655368253141014,1
8,1,1,8,83,html-slider-response,83,393152,3867.0,4.0,0.1,question_agency,question_agency_line_inverted,-6.0,5.0,4.0,5.0,8.0,0.27055768303174504,-0.3015135539854713,2
5,1,1,5,102,html-slider-response,102,479340,3968.0,0.0,0.1,question_agency,question_agency_line_inverted,-10.0,8.0,6.0,0.0,0.0,0.0,0.0,3
9,1,1,9,133,html-slider-response,133,616728,4399.0,54.0,0.1,question_agency,question_agency_line_inverted,44.0,9.0,9.0,11.0,6.0,-0.42339860816988334,0.4039769687913741,4
6,1,1,6,164,html-slider-response,164,769220,4288.0,5.0,0.1,question_agency,question_agency_line_inverted,-5.0,5.0,6.0,8.0,6.0,-0.24872543783622864,-0.4968584929267385,5
12,1,1,12,31,html-slider-response,31,165529,4427.0,43.0,0.2,question_agency,question_agency_line_inverted,23.0,8.0,7.0,8.0,4.0,0.22031279712770585,-0.5528560050938792,1
11,1,1,11,77,html-slider-response,77,366512,4358.0,17.0,0.2,question_agency,question_agency_line_inverted,-3.0,9.0,3.0,8.0,9.0,0.008683651694299296,-0.09172710410594584,2
10,1,1,10,111,html-slider-response,111,520070,4144.0,0.0,0.2,question_agency,question_agency_line_inverted,-20.0,5.0,4.0,0.0,0.0,0.0,0.0,3
14,1,1,14,148,html-slider-response,148,696895,6173.0,47.0,0.2,question_agency,question_agency_line_inverted,27.0,7.0,5.0,4.0,12.0,0.49248797494906815,-0.0452936789088371,4
13,1,1,13,182,html-slider-response,182,860652,4094.0,43.0,0.2,question_agency,question_agency_line_inverted,23.0,4.0,5.0,6.0,3.0,0.38138376709130295,-0.5823206948094477,5
18,1,1,18,28,html-slider-response,28,152093,4743.0,40.0,0.3,question_agency,question_agency_line_inverted,10.0,5.0,6.0,12.0,6.0,-0.03029356185436277,0.0006506528448866928,1
19,1,1,19,56,html-slider-response,56,273049,4888.0,29.0,0.3,question_agency,question_agency_line_inverted,-1.0,8.0,7.0,7.0,6.0,0.4130013069872661,-0.027193921190661573,2
15,1,1,15,90,html-slider-response,90,424550,6055.0,12.0,0.3,question_agency,question_agency_line_inverted,-18.0,5.0,9.0,6.0,5.0,-0.20856415950076423,-0.11211882035469993,3
16,1,1,16,145,html-slider-response,145,681701,5641.0,50.0,0.3,question_agency,question_agency_line_inverted,20.0,5.0,5.0,6.0,6.0,-0.06409861969388767,-0.30393972443982975,4
17,1,1,17,188,html-slider-response,188,889225,5809.0,0.0,0.3,question_agency,question_agency_line_inverted,-30.0,4.0,7.0,6.0,4.0,0.13592619753555746,0.4875030668267532,5
22,1,1,22,34,html-slider-response,34,177898,3357.0,58.0,0.4,question_agency,question_agency_line_inverted,18.0,10.0,6.0,11.0,6.0,0.0032468218336363895,0.2616090517783458,1
20,1,1,20,71,html-slider-response,71,340260,4788.0,34.0,0.4,question_agency,question_agency_line_inverted,-6.0,8.0,8.0,7.0,7.0,0.24099602017116015,0.17040595649096893,2
23,1,1,23,93,html-slider-response,93,439396,5817.0,13.0,0.4,question_agency,question_agency_line_inverted,-27.0,7.0,7.0,5.0,7.0,-0.20388523999441768,0.012602712430604564,3
24,1,1,24,124,html-slider-response,124,574228,3500.0,1.0,0.4,question_agency,question_agency_line_inverted,-39.0,4.0,7.0,0.0,0.0,0.0,0.0,4
21,1,1,21,179,html-slider-response,179,847538,4417.0,45.0,0.4,question_agency,question_agency_line_inverted,5.0,9.0,7.0,7.0,6.0,-0.3579491740160018,0.1495121562135668,5
25,1,1,25,25,html-slider-response,25,138333,2944.0,74.0,0.5,question_agency,question_agency_line_inverted,24.0,6.0,8.0,11.0,9.0,0.4426177870198393,0.03523148288539273,1
29,1,1,29,68,html-slider-response,68,326456,4051.0,36.0,0.5,question_agency,question_agency_line_inverted,-14.0,7.0,5.0,7.0,6.0,0.14506551042132587,-0.02506409010521792,2
28,1,1,28,105,html-slider-response,105,492302,3945.0,0.0,0.5,question_agency,question_agency_line_inverted,-50.0,9.0,5.0,0.0,0.0,0.0,0.0,3
27,1,1,27,139,html-slider-response,139,645492,6085.0,52.0,0.5,question_agency,question_agency_line_inverted,2.0,7.0,6.0,6.0,4.0,0.6113783588829375,-0.026704930330894924,4
26,1,1,26,161,html-slider-response,161,755902,5451.0,36.0,0.5,question_agency,question_agency_line_inverted,-14.0,6.0,6.0,10.0,6.0,-0.2281771699891121,-0.07013722859590622,5
30,1,1,30,52,html-slider-response,52,255803,2561.0,86.0,0.6,question_agency,question_agency_line_inverted,26.0,6.0,7.0,8.0,4.0,0.2825592384599306,0.23355725950866357,1
33,1,1,33,74,html-slider-response,74,353137,3865.0,67.0,0.6,question_agency,question_agency_line_inverted,7.0,7.0,5.0,5.0,8.0,-0.0660639604850392,-0.2576928427657555,2
34,1,1,34,108,html-slider-response,108,506906,5588.0,4.0,0.6,question_agency,question_agency_line_inverted,-56.0,7.0,6.0,0.0,0.0,0.0,0.0,3
32,1,1,32,151,html-slider-response,151,711912,5988.0,50.0,0.6,question_agency,question_agency_line_inverted,-10.0,7.0,7.0,7.0,4.0,0.10501303268362136,0.021415176400488248,4
31,1,1,31,173,html-slider-response,173,816517,7917.0,78.0,0.6,question_agency,question_agency_line_inverted,18.0,6.0,4.0,7.0,5.0,0.37175294663377917,-0.2510533010554328,5
38,1,1,38,43,html-slider-response,43,217718,3805.0,94.0,0.7,question_agency,question_agency_line_inverted,24.0,5.0,5.0,9.0,8.0,-0.14433679096177207,0.059839995341832874,1
36,1,1,36,86,html-slider-response,86,407996,5819.0,84.0,0.7,question_agency,question_agency_line_inverted,14.0,6.0,8.0,16.0,4.0,0.15789705101555981,-0.18816249380762204,2
37,1,1,37,96,html-slider-response,96,452897,4488.0,58.0,0.7,question_agency,question_agency_line_inverted,-12.0,7.0,9.0,8.0,6.0,-0.11122839827535755,-0.06444565029783388,3
39,1,1,39,136,html-slider-response,136,630389,4644.0,58.0,0.7,question_agency,question_agency_line_inverted,-12.0,7.0,5.0,8.0,6.0,0.3987856952570051,-0.10008339528003889,4
35,1,1,35,185,html-slider-response,185,874396,4728.0,58.0,0.7,question_agency,question_agency_line_inverted,-12.0,6.0,5.0,5.0,3.0,0.0002554008736430224,0.37405314687559627,5
40,1,1,40,37,html-slider-response,37,189887,2973.0,95.0,0.8,question_agency,question_agency_line_inverted,15.0,5.0,7.0,5.0,3.0,0.1485104110629948,-0.254456189111063,1
42,1,1,42,59,html-slider-response,59,286197,4123.0,88.0,0.8,question_agency,question_agency_line_inverted,8.0,6.0,8.0,13.0,10.0,0.36260559255824565,0.3385243865720332,2
44,1,1,44,114,html-slider-response,114,533128,4042.0,0.0,0.8,question_agency,question_agency_line_inverted,-80.0,5.0,5.0,0.0,0.0,0.0,0.0,3
41,1,1,41,127,html-slider-response,127,587825,4580.0,0.0,0.8,question_agency,question_agency_line_inverted,-80.0,6.0,6.0,0.0,0.0,0.0,0.0,4
43,1,1,43,176,html-slider-response,176,834101,8556.0,47.0,0.8,question_agency,question_agency_line_inverted,-33.0,6.0,4.0,3.0,4.0,0.08993895770684689,-0.15391333214093342,5
49,1,1,49,49,html-slider-response,49,244219,4640.0,93.0,0.9,question_agency,question_agency_line_inverted,3.0,9.0,7.0,6.0,7.0,-0.4344479606940516,0.1621186696275395,1
48,1,1,48,80,html-slider-response,80,380268,4740.0,95.0,0.9,question_agency,question_agency_line_inverted,5.0,5.0,5.0,9.0,4.0,-0.09758545549813122,-0.18472203390640607,2
47,1,1,47,120,html-slider-response,120,559419,3637.0,2.0,0.9,question_agency,question_agency_line_inverted,-88.0,7.0,9.0,0.0,0.0,0.0,0.0,3
45,1,1,45,130,html-slider-response,130,603293,6445.0,97.0,0.9,question_agency,question_agency_line_inverted,7.0,6.0,6.0,7.0,5.0,0.3643633386145986,0.08959438189666159,4
46,1,1,46,170,html-slider-response,170,799577,5694.0,86.0,0.9,question_agency,question_agency_line_inverted,-4.0,7.0,5.0,6.0,6.0,0.19944365832303518,-0.2589108100712928,5
51,1,1,51,46,html-slider-response,46,230558,3828.0,100.0,1.0,question_agency,question_agency_line_inverted,0.0,7.0,6.0,9.0,7.0,0.18850404267179616,0.23144823059491088,1
53,1,1,53,65,html-slider-response,65,313391,4735.0,100.0,1.0,question_agency,question_agency_line_inverted,0.0,5.0,8.0,7.0,6.0,-0.17230341788038703,-0.40202294163031704,2
54,1,1,54,99,html-slider-response,99,466331,4420.0,0.0,1.0,question_agency,question_agency_line_inverted,-100.0,6.0,8.0,0.0,0.0,0.0,0.0,3
50,1,1,50,142,html-slider-response,142,667036,12528.0,91.0,1.0,question_agency,question_agency_line_inverted,-9.0,6.0,9.0,7.0,4.0,0.06350125995427719,0.0022072324981699766,4
52,1,1,52,158,html-slider-response,158,741423,4273.0,100.0,1.0,question_agency,question_agency_line_inverted,0.0,9.0,6.0,6.0,5.0,0.031127593220055774,0.1426521059598861,5
0,2,1,0,25,html-slider-response,25,142867,4220.0,17.0,0.0,question_agency,question_agency_line_inverted,17.0,10.0,8.0,8.0,18.0,-0.2021903250267891,-0.1602335002674676,1
1,2,1,1,77,html-slider-response,77,643865,3851.0,0.0,0.0,question_agency,question_agency_line_inverted,0.0,6.0,4.0,9.0,15.0,0.1303703833585643,-0.22821372717344893,2
4,2,1,4,99,html-slider-response,99,826344,3053.0,17.0,0.0,question_agency,question_agency_line_inverted,17.0,8.0,6.0,12.0,13.0,-0.33809001055273685,0.014781391077855284,3
3,2,1,3,139,html-slider-response,139,1077539,4207.0,0.0,0.0,question_agency,question_agency_line_inverted,0.0,8.0,9.0,5.0,8.0,0.26471746172044014,-0.08865457920808167,4
2,2,1,2,158,html-slider-response,158,1266679,5897.0,4.0,0.0,question_agency,question_agency_line_inverted,4.0,5.0,4.0,15.0,8.0,0.014399789788343432,-0.19350393754057696,5
6,2,1,6,31,html-slider-response,31,171845,4894.0,0.0,0.1,question_agency,question_agency_line_inverted,-10.0,6.0,8.0,4.0,25.0,-0.2663816916664113,-0.3254255428804343,1
9,2,1,9,71,html-slider-response,71,617343,61808.0,4.0,0.1,question_agency,question_agency_line_inverted,-6.0,8.0,5.0,19.0,6.0,0.1841651611188618,-0.07742680341506515,2
7,2,1,7,90,html-slider-response,90,786503,4000.0,0.0,0.1,question_agency,question_agency_line_inverted,-10.0,6.0,9.0,2.0,1.0,0.2281914420343577,0.39906806601631056,3
5,2,1,5,142,html-slider-response,142,1090907,4361.0,0.0,0.1,question_agency,question_agency_line_inverted,-10.0,6.0,6.0,6.0,0.0,0.48383429806362815,0.0,4
8,2,1,8,170,html-slider-response,170,1324052,9841.0,67.0,0.1,question_agency,question_agency_line_inverted,57.0,8.0,7.0,10.0,11.0,0.23002418753752218,0.2532259012607965,5
13,2,1,13,52,html-slider-response,52,270979,6661.0,84.0,0.2,question_agency,question_agency_line_inverted,64.0,8.0,9.0,13.0,8.0,-0.0013034723901355076,0.06015491355103527,1
14,2,1,14,68,html-slider-response,68,546516,7772.0,4.0,0.2,question_agency,question_agency_line_inverted,-16.0,7.0,8.0,4.0,19.0,-0.16032085056026157,0.13620878674425493,2
10,2,1,10,117,html-slider-response,117,909497,6731.0,4.0,0.2,question_agency,question_agency_line_inverted,-16.0,10.0,10.0,0.0,8.0,0.0,0.022852849618681653,3
11,2,1,11,124,html-slider-response,124,1006895,3501.0,0.0,0.2,question_agency,question_agency_line_inverted,-20.0,5.0,6.0,4.0,1.0,0.048422321799273846,-0.23820164931226898,4
12,2,1,12,176,html-slider-response,176,1608196,178116.0,18.0,0.2,question_agency,question_agency_line_inverted,-2.0,8.0,7.0,8.0,2.0,0.2743435713243886,-0.03442157242947513,5
18,2,1,18,34,html-slider-response,34,188857,8003.0,31.0,0.3,question_agency,question_agency_line_inverted,1.0,7.0,8.0,14.0,4.0,0.4816970654554775,0.34091589427471297,1
19,2,1,19,65,html-slider-response,65,529736,4789.0,12.0,0.3,question_agency,question_agency_line_inverted,-18.0,7.0,6.0,10.0,2.0,0.2940616608599537,-0.08243497857088221,2
15,2,1,15,114,html-slider-response,114,893751,3736.0,5.0,0.3,question_agency,question_agency_line_inverted,-25.0,7.0,7.0,10.0,10.0,-0.47288713648125513,-0.17279270232162758,3
16,2,1,16,154,html-slider-response,154,1153533,4445.0,67.0,0.3,question_agency,question_agency_line_inverted,37.0,5.0,9.0,9.0,4.0,-0.5453084969718985,0.18139941024662348,4
17,2,1,17,182,html-slider-response,182,1690640,9796.0,8.0,0.3,question_agency,question_agency_line_inverted,-22.0,6.0,6.0,5.0,15.0,0.3339858563870184,0.042357288803964825,5
23,2,1,23,28,html-slider-response,28,157938,6064.0,14.0,0.4,question_agency,question_agency_line_inverted,-26.0,6.0,5.0,10.0,11.0,0.4213184015101293,0.025583779366491668,1
20,2,1,20,59,html-slider-response,59,501655,3646.0,3.0,0.4,question_agency,question_agency_line_inverted,-37.0,7.0,8.0,10.0,5.0,0.07864456052371757,0.08951441668980015,2
24,2,1,24,96,html-slider-response,96,814285,4892.0,82.0,0.4,question_agency,question_agency_line_inverted,42.0,6.0,9.0,15.0,1.0,-0.16392415084132442,0.10982963498916644,3
22,2,1,22,127,html-slider-response,127,1021531,5621.0,11.0,0.4,question_agency,question_agency_line_inverted,-29.0,6.0,6.0,7.0,6.0,0.12157741298134624,0.21787454864072656,4
21,2,1,21,167,html-slider-response,167,1305202,4384.0,87.0,0.4,question_agency,question_agency_line_inverted,47.0,7.0,6.0,12.0,4.0,0.3355501020403937,0.3452744897635186,5
29,2,1,29,49,html-slider-response,49,255307,3520.0,28.0,0.5,question_agency,question_agency_line_inverted,-22.0,4.0,8.0,22.0,22.0,-0.25838864418135377,0.0951787822237619,1
28,2,1,28,86,html-slider-response,86,685149,3994.0,54.0,0.5,question_agency,question_agency_line_inverted,4.0,8.0,7.0,10.0,1.0,0.2856639023366554,-0.11063567748138668,2
26,2,1,26,105,html-slider-response,105,852063,4260.0,95.0,0.5,question_agency,question_agency_line_inverted,45.0,7.0,6.0,7.0,4.0,0.3480337915898373,0.26651297296618065,3
25,2,1,25,130,html-slider-response,130,1038642,8098.0,14.0,0.5,question_agency,question_agency_line_inverted,-36.0,5.0,8.0,9.0,2.0,-0.16854290730686883,-0.1787918446710403,4
27,2,1,27,188,html-slider-response,188,1758395,3391.0,14.0,0.5,question_agency,question_agency_line_inverted,-36.0,5.0,7.0,12.0,2.0,-0.5234795833263667,0.4337087446861601,5
30,2,1,30,46,html-slider-response,46,242774,3846.0,42.0,0.6,question_agency,question_agency_line_inverted,-18.0,8.0,5.0,27.0,6.0,0.22788541442438429,0.11179598426724674,1
32,2,1,32,80,html-slider-response,80,656733,3856.0,32.0,0.6,question_agency,question_agency_line_inverted,-28.0,9.0,6.0,10.0,1.0,-0.5104067521296509,0.08423650886739693,2
31,2,1,31,120,html-slider-response,120,925313,6807.0,84.0,0.6,question_agency,question_agency_line_inverted,24.0,4.0,7.0,6.0,5.0,-0.1231598274750291,0.31089026195279507,3
33,2,1,33,133,html-slider-response,133,1051086,3434.0,78.0,0.6,question_agency,question_agency_line_inverted,18.0,8.0,6.0,3.0,5.0,-0.16160336897851293,0.14230001761680094,4
34,2,1,34,179,html-slider-response,179,1671827,54618.0,34.0,0.6,question_agency,question_agency_line_inverted,-26.0,5.0,5.0,11.0,8.0,-0.12497215057468687,0.2842203711043657,5
37,2,1,37,43,html-slider-response,43,229916,3997.0,24.0,0.7,question_agency,question_agency_line_inverted,-46.0,7.0,5.0,10.0,6.0,-0.41731176361139566,0.052495190712999844,1
38,2,1,38,62,html-slider-response,62,515928,5252.0,81.0,0.7,question_agency,question_agency_line_inverted,11.0,9.0,6.0,13.0,2.0,-0.18713732125133378,-0.3933263682476654,2
35,2,1,35,111,html-slider-response,111,880995,3783.0,95.0,0.7,question_agency,question_agency_line_inverted,25.0,7.0,7.0,6.0,4.0,0.40693012039882964,0.41491105577496057,3
39,2,1,39,145,html-slider-response,145,1111657,11111.0,20.0,0.7,question_agency,question_agency_line_inverted,-50.0,5.0,6.0,0.0,0.0,0.0,0.0,4
36,2,1,36,164,html-slider-response,164,1291798,3524.0,87.0,0.7,question_agency,question_agency_line_inverted,17.0,8.0,6.0,6.0,3.0,0.28171587465379044,0.023007370223067463,5
41,2,1,41,40,html-slider-response,40,216898,5095.0,90.0,0.8,question_agency,question_agency_line_inverted,10.0,8.0,7.0,16.0,4.0,0.03401714783670702,-0.16124063384997306,1
42,2,1,42,74,html-slider-response,74,631003,4634.0,76.0,0.8,question_agency,question_agency_line_inverted,-4.0,7.0,7.0,10.0,3.0,0.09591289337917487,-0.01615390135157712,2
43,2,1,43,102,html-slider-response,102,838792,3441.0,98.0,0.8,question_agency,question_agency_line_inverted,18.0,6.0,4.0,8.0,4.0,-0.09731549522411657,0.10889208023232669,3
40,2,1,40,148,html-slider-response,148,1127049,6376.0,43.0,0.8,question_agency,question_agency_line_inverted,-37.0,9.0,6.0,7.0,4.0,-0.37610988274809903,-0.2023113072045829,4
44,2,1,44,173,html-slider-response,173,1421063,87994.0,81.0,0.8,question_agency,question_agency_line_inverted,1.0,6.0,7.0,4.0,3.0,0.16755568783304156,0.010223487012228007,5
46,2,1,46,37,html-slider-response,37,202778,4909.0,85.0,0.9,question_agency,question_agency_line_inverted,-5.0,5.0,7.0,12.0,3.0,-0.3263820540024574,-0.18524321359397297,1
45,2,1,45,56,html-slider-response,56,488998,5090.0,97.0,0.9,question_agency,question_agency_line_inverted,7.0,6.0,7.0,18.0,6.0,-0.053254395669008366,-0.35263398025913584,2
48,2,1,48,93,html-slider-response,93,800383,4863.0,89.0,0.9,question_agency,question_agency_line_inverted,-1.0,9.0,9.0,7.0,3.0,-0.4247788116050817,0.1590456147418279,3
49,2,1,49,136,html-slider-response,136,1064315,4220.0,97.0,0.9,question_agency,question_agency_line_inverted,7.0,6.0,7.0,8.0,5.0,-0.059694927387306286,0.21294629977238244,4
47,2,1,47,161,html-slider-response,161,1279253,3560.0,89.0,0.9,question_agency,question_agency_line_inverted,-1.0,8.0,8.0,11.0,6.0,-0.19806405689711196,0.2884104331192673,5
54,2,1,54,22,html-slider-response,22,129636,5148.0,100.0,1.0,question_agency,question_agency_line_inverted,0.0,8.0,7.0,12.0,17.0,-0.00102403962404309,0.11065446925636217,1
52,2,1,52,83,html-slider-response,83,672137,6399.0,100.0,1.0,question_agency,question_agency_line_inverted,0.0,9.0,4.0,10.0,8.0,0.11322427057700285,-0.06518164531017166,2
50,2,1,50,108,html-slider-response,108,868192,7123.0,100.0,1.0,question_agency,question_agency_line_inverted,0.0,7.0,7.0,26.0,8.0,-0.22737098365949104,0.1318074020554555,3
53,2,1,53,151,html-slider-response,151,1140079,4015.0,88.0,1.0,question_agency,question_agency_line_inverted,-12.0,10.0,7.0,9.0,12.0,0.39436641249221577,0.14668400419436595,4
51,2,1,51,185,html-slider-response,185,1745991,46340.0,75.0,1.0,question_agency,question_agency_line_inverted,-25.0,5.0,4.0,6.0,6.0,0.007661565303034783,-0.2206910753534678,5
1,3,1,1,25,html-slider-response,25,228852,5265.0,2.0,0.0,question_agency,question_agency_line_inverted,2.0,8.0,7.0,16.0,11.0,0.2893953966899385,-0.1766237875933221,1
3,3,1,3,74,html-slider-response,74,482682,4637.0,0.0,0.0,question_agency,question_agency_line_inverted,0.0,6.0,8.0,9.0,14.0,0.31290242161949466,0.023741868185849023,2
0,3,1,0,90,html-slider-response,90,559898,7093.0,1.0,0.0,question_agency,question_agency_line_inverted,1.0,7.0,10.0,14.0,11.0,0.07588695543663437,0.5422259058022284,3
4,3,1,4,145,html-slider-response,145,819888,3958.0,0.0,0.0,question_agency,question_agency_line_inverted,0.0,8.0,9.0,10.0,8.0,0.08131666446085942,0.4899720219820069,4
2,3,1,2,173,html-slider-response,173,950336,3892.0,0.0,0.0,question_agency,question_agency_line_inverted,0.0,7.0,4.0,9.0,10.0,-0.13780208502393246,-0.036639187656994684,5
8,3,1,8,40,html-slider-response,40,306379,5567.0,72.0,0.1,question_agency,question_agency_line_inverted,62.0,7.0,6.0,5.0,12.0,0.571422849718323,0.20310230847318647,1
9,3,1,9,68,html-slider-response,68,454626,4345.0,0.0,0.1,question_agency,question_agency_line_inverted,-10.0,6.0,6.0,18.0,16.0,-0.1293673947971971,0.08560026837374966,2
5,3,1,5,117,html-slider-response,117,692497,3779.0,0.0,0.1,question_agency,question_agency_line_inverted,-10.0,7.0,7.0,13.0,14.0,-0.00997923880225747,-0.12913697592431436,3
6,3,1,6,124,html-slider-response,124,724520,2891.0,0.0,0.1,question_agency,question_agency_line_inverted,-10.0,9.0,7.0,14.0,17.0,-0.2375037037593619,0.09729072146173397,4
7,3,1,7,179,html-slider-response,179,977737,3664.0,0.0,0.1,question_agency,question_agency_line_inverted,-10.0,9.0,8.0,17.0,18.0,0.004624034030380037,-0.02651612592209223,5
13,3,1,13,28,html-slider-response,28,244147,6288.0,0.0,0.2,question_agency,question_agency_line_inverted,-20.0,6.0,6.0,15.0,18.0,-0.42225782074139573,-0.1456994902508256,1
11,3,1,11,56,html-slider-response,56,395051,5444.0,0.0,0.2,question_agency,question_agency_line_inverted,-20.0,8.0,7.0,5.0,22.0,0.11926561368147451,-0.01004524182713684,2
14,3,1,14,93,html-slider-response,93,579810,10892.0,2.0,0.2,question_agency,question_agency_line_inverted,-18.0,5.0,9.0,8.0,7.0,0.1663586647610131,-0.15152054394549055,3
10,3,1,10,127,html-slider-response,127,737801,4263.0,0.0,0.2,question_agency,question_agency_line_inverted,-20.0,8.0,8.0,17.0,16.0,0.14927215510242053,-0.2753874310068199,4
12,3,1,12,167,html-slider-response,167,923841,9010.0,1.0,0.2,question_agency,question_agency_line_inverted,-19.0,10.0,8.0,9.0,12.0,0.2415841788909618,-0.2577295693172466,5
18,3,1,18,31,html-slider-response,31,260691,7526.0,29.0,0.3,question_agency,question_agency_line_inverted,-1.0,7.0,6.0,9.0,8.0,-0.06346637733809356,0.240584427833523,1
15,3,1,15,59,html-slider-response,59,407547,3481.0,59.0,0.3,question_agency,question_agency_line_inverted,29.0,6.0,6.0,5.0,10.0,-0.022607353104014148,0.37182446223145904,2
19,3,1,19,105,html-slider-response,105,636581,5553.0,2.0,0.3,question_agency,question_agency_line_inverted,-28.0,7.0,9.0,16.0,7.0,0.13733848465348786,0.11266706242027025,3
16,3,1,16,151,html-slider-response,151,849184,4218.0,36.0,0.3,question_agency,question_agency_line_inverted,6.0,9.0,7.0,5.0,6.0,0.05746612912164465,0.28111060478594246,4
17,3,1,17,164,html-slider-response,164,905824,3569.0,2.0,0.3,question_agency,question_agency_line_inverted,-28.0,4.0,5.0,12.0,12.0,0.15844857393344677,-0.1996528837882335,5
23,3,1,23,22,html-slider-response,22,214580,9511.0,15.0,0.4,question_agency,question_agency_line_inverted,-25.0,6.0,5.0,7.0,22.0,0.1516954979338643,-0.39140666186998335,1
24,3,1,24,65,html-slider-response,65,441266,10120.0,76.0,0.4,question_agency,question_agency_line_inverted,36.0,6.0,8.0,10.0,7.0,0.24212385808076584,0.2669117898762711,2
22,3,1,22,111,html-slider-response,111,665693,5365.0,10.0,0.4,question_agency,question_agency_line_inverted,-30.0,7.0,4.0,10.0,9.0,0.357119014625294,-0.10745133209994899,3
20,3,1,20,133,html-slider-response,133,765513,5360.0,65.0,0.4,question_agency,question_agency_line_inverted,25.0,9.0,6.0,10.0,11.0,0.17106229480779497,0.382620765968742,4
21,3,1,21,170,html-slider-response,170,937432,4581.0,0.0,0.4,question_agency,question_agency_line_inverted,-40.0,6.0,7.0,14.0,20.0,-0.032991677475822795,0.07369757323416097,5
29,3,1,29,49,html-slider-response,49,348834,4712.0,9.0,0.5,question_agency,question_agency_line_inverted,-41.0,5.0,9.0,5.0,18.0,0.3004607396624791,-0.12998043980499097,1
28,3,1,28,83,html-slider-response,83,525572,8043.0,9.0,0.5,question_agency,question_agency_line_inverted,-41.0,9.0,7.0,6.0,9.0,-0.06533610680340168,-0.4942617870687213,2
25,3,1,25,120,html-slider-response,120,707584,6077.0,16.0,0.5,question_agency,question_agency_line_inverted,-34.0,7.0,8.0,12.0,11.0,-0.0278803371650952,-0.06961768003060961,3
26,3,1,26,154,html-slider-response,154,862667,4476.0,72.0,0.5,question_agency,question_agency_line_inverted,22.0,7.0,7.0,4.0,9.0,0.1887134691695912,0.01103377379418979,4
27,3,1,27,185,html-slider-response,185,1011983,9263.0,51.0,0.5,question_agency,question_agency_line_inverted,1.0,9.0,5.0,8.0,4.0,0.37822406883036563,-0.10590367563610606,5
30,3,1,30,52,html-slider-response,52,365130,7287.0,79.0,0.6,question_agency,question_agency_line_inverted,19.0,8.0,10.0,10.0,16.0,0.10893702876670965,-0.08249989918599404,1
34,3,1,34,62,html-slider-response,62,422138,5582.0,97.0,0.6,question_agency,question_agency_line_inverted,37.0,10.0,5.0,8.0,7.0,0.038802213996080574,0.2720640159230652,2
33,3,1,33,114,html-slider-response,114,679705,4995.0,75.0,0.6,question_agency,question_agency_line_inverted,15.0,8.0,11.0,6.0,12.0,-0.1122648157530745,-0.04711170144328678,3
32,3,1,32,148,html-slider-response,148,835960,7055.0,94.0,0.6,question_agency,question_agency_line_inverted,34.0,7.0,7.0,6.0,7.0,-0.4361337165291665,-0.4494821182205472,4
31,3,1,31,158,html-slider-response,158,879865,4032.0,52.0,0.6,question_agency,question_agency_line_inverted,-8.0,6.0,9.0,9.0,4.0,0.28851285965035545,-0.1644912888721985,5
35,3,1,35,46,html-slider-response,46,335115,4902.0,97.0,0.7,question_agency,question_agency_line_inverted,27.0,7.0,4.0,6.0,7.0,0.11902667588696791,-0.21423165351704768,1
36,3,1,36,80,html-slider-response,80,508520,3380.0,99.0,0.7,question_agency,question_agency_line_inverted,29.0,7.0,8.0,8.0,5.0,-0.20896533330993897,-0.28568335197041883,2
38,3,1,38,102,html-slider-response,102,622013,5788.0,99.0,0.7,question_agency,question_agency_line_inverted,29.0,7.0,6.0,5.0,4.0,0.19635668982406876,-0.0012510149381595066,3
37,3,1,37,136,html-slider-response,136,780937,6412.0,91.0,0.7,question_agency,question_agency_line_inverted,21.0,7.0,8.0,8.0,6.0,-0.21953104788766872,0.4046203444243397,4
39,3,1,39,182,html-slider-response,182,993703,6958.0,91.0,0.7,question_agency,question_agency_line_inverted,21.0,8.0,6.0,5.0,8.0,0.004990209527300853,-0.24715415256680123,5
40,3,1,40,43,html-slider-response,43,321195,5805.0,99.0,0.8,question_agency,question_agency_line_inverted,19.0,6.0,4.0,7.0,8.0,0.09953259099112625,-0.41798223344709035,1
43,3,1,43,71,html-slider-response,71,469034,5390.0,99.0,0.8,question_agency,question_agency_line_inverted,19.0,5.0,7.0,4.0,9.0,0.47184424365307576,-0.2678984229843907,2
44,3,1,44,99,html-slider-response,99,607226,5248.0,99.0,0.8,question_agency,question_agency_line_inverted,19.0,5.0,6.0,5.0,6.0,0.16586000486426863,0.3929028976662712,3
41,3,1,41,142,html-slider-response,142,806920,3932.0,98.0,0.8,question_agency,question_agency_line_inverted,18.0,8.0,7.0,9.0,6.0,0.42571010789747576,-0.02485445182265881,4
42,3,1,42,188,html-slider-response,188,1025759,4766.0,95.0,0.8,question_agency,question_agency_line_inverted,15.0,5.0,7.0,6.0,6.0,-0.4863682748532396,-0.19471451701768724,5
49,3,1,49,34,html-slider-response,34,276899,7193.0,100.0,0.9,question_agency,question_agency_line_inverted,10.0,9.0,5.0,4.0,11.0,-0.05793217500836572,0.07115170639230634,1
46,3,1,46,77,html-slider-response,77,496132,4449.0,100.0,0.9,question_agency,question_agency_line_inverted,10.0,8.0,7.0,6.0,11.0,-0.2552232228274569,-0.22044610276554658,2
47,3,1,47,108,html-slider-response,108,651309,5720.0,100.0,0.9,question_agency,question_agency_line_inverted,10.0,4.0,6.0,6.0,8.0,0.09730278784805414,-0.17257360424877374,3
45,3,1,45,139,html-slider-response,139,793976,4027.0,99.0,0.9,question_agency,question_agency_line_inverted,9.0,9.0,7.0,4.0,8.0,-0.003276473516626469,-0.06493864417960059,4
48,3,1,48,176,html-slider-response,176,965064,5714.0,99.0,0.9,question_agency,question_agency_line_inverted,9.0,10.0,6.0,7.0,6.0,-0.1839184465973615,-0.03669876266891153,5
52,3,1,52,37,html-slider-response,37,291795,5885.0,100.0,1.0,question_agency,question_agency_line_inverted,0.0,7.0,7.0,6.0,9.0,-0.243921179875803,0.1325603729991792,1
53,3,1,53,86,html-slider-response,86,539084,4499.0,100.0,1.0,question_agency,question_agency_line_inverted,0.0,6.0,4.0,5.0,10.0,-0.41037158541313956,-0.0009656412323912328,2
54,3,1,54,96,html-slider-response,96,592970,4151.0,100.0,1.0,question_agency,question_agency_line_inverted,0.0,4.0,6.0,8.0,6.0,0.20592244105296892,0.31738671980260025,3
50,3,1,50,130,html-slider-response,130,751137,4325.0,100.0,1.0,question_agency,question_agency_line_inverted,0.0,4.0,7.0,5.0,10.0,0.10665740556070567,-0.2413427903678754,4
51,3,1,51,161,html-slider-response,161,893241,4358.0,100.0,1.0,question_agency,question_agency_line_inverted,0.0,7.0,8.0,4.0,8.0,-0.5927714200303833,0.24407287187833637,5
3,4,1,3,40,html-slider-response,40,180059,3908.0,1.0,0.0,question_agency,question_agency_line_inverted,1.0,9.0,10.0,8.0,5.0,0.3527565624870509,0.12725262688367694,1
4,4,1,4,71,html-slider-response,71,332470,6010.0,0.0,0.0,question_agency,question_agency_line_inverted,0.0,5.0,5.0,9.0,4.0,-0.19254161606815895,0.05613523481333224,2
2,4,1,2,90,html-slider-response,90,446967,4067.0,0.0,0.0,question_agency,question_agency_line_inverted,0.0,7.0,8.0,11.0,15.0,-0.12482823513785493,-0.3034583525465061,3
0,4,1,0,127,html-slider-response,127,640843,5764.0,0.0,0.0,question_agency,question_agency_line_inverted,0.0,6.0,6.0,6.0,2.0,-0.36493862346661793,-0.21431116898955677,4
1,4,1,1,182,html-slider-response,182,963197,5133.0,7.0,0.0,question_agency,question_agency_line_inverted,7.0,11.0,9.0,9.0,9.0,0.16578237768333046,0.014806703333335261,5
7,4,1,7,43,html-slider-response,43,195935,6856.0,1.0,0.1,question_agency,question_agency_line_inverted,-9.0,8.0,7.0,8.0,11.0,-0.21669817823084875,0.44699465498196,1
8,4,1,8,77,html-slider-response,77,359546,4385.0,0.0,0.1,question_agency,question_agency_line_inverted,-10.0,6.0,9.0,4.0,6.0,-0.609237312036265,0.012678914213610873,2
6,4,1,6,102,html-slider-response,102,516055,7202.0,0.0,0.1,question_agency,question_agency_line_inverted,-10.0,6.0,6.0,11.0,16.0,-0.16555811143630395,-0.475399687125873,3
5,4,1,5,136,html-slider-response,136,685683,8600.0,13.0,0.1,question_agency,question_agency_line_inverted,3.0,5.0,3.0,8.0,8.0,0.11137850219527924,-0.014128597597440814,4
9,4,1,9,158,html-slider-response,158,810830,5210.0,7.0,0.1,question_agency,question_agency_line_inverted,-3.0,7.0,8.0,4.0,21.0,0.21001802566909714,0.19313051916776244,5
11,4,1,11,49,html-slider-response,49,228287,5346.0,0.0,0.2,question_agency,question_agency_line_inverted,-20.0,7.0,5.0,6.0,7.0,0.06898171270646697,-0.17261030889142384,1
12,4,1,12,74,html-slider-response,74,346144,4662.0,5.0,0.2,question_agency,question_agency_line_inverted,-15.0,8.0,9.0,6.0,7.0,0.2702541039236338,0.24739461230611562,2
14,4,1,14,111,html-slider-response,111,569619,16014.0,7.0,0.2,question_agency,question_agency_line_inverted,-13.0,7.0,6.0,8.0,14.0,-0.5304214245273878,0.07837076796389505,3
13,4,1,13,151,html-slider-response,151,758059,4306.0,5.0,0.2,question_agency,question_agency_line_inverted,-15.0,6.0,10.0,10.0,16.0,0.09146226139744314,0.12994553121169514,4
10,4,1,10,173,html-slider-response,173,920997,6343.0,55.0,0.2,question_agency,question_agency_line_inverted,35.0,7.0,7.0,21.0,12.0,0.1938698760658939,0.05409945812672458,5
18,4,1,18,25,html-slider-response,25,110704,4742.0,19.0,0.3,question_agency,question_agency_line_inverted,-11.0,8.0,9.0,11.0,8.0,-0.1453308715101531,0.388405559250252,1
16,4,1,16,68,html-slider-response,68,317444,3587.0,4.0,0.3,question_agency,question_agency_line_inverted,-26.0,7.0,7.0,3.0,10.0,0.46431287256485804,-0.2838157620004121,2
15,4,1,15,105,html-slider-response,105,529039,3953.0,4.0,0.3,question_agency,question_agency_line_inverted,-26.0,5.0,6.0,6.0,10.0,-0.10812802904259183,-0.3583593401962915,3
19,4,1,19,154,html-slider-response,154,790471,23397.0,15.0,0.3,question_agency,question_agency_line_inverted,-15.0,9.0,4.0,18.0,4.0,0.20784103097553489,-0.010887151323047056,4
17,4,1,17,167,html-slider-response,167,890553,4947.0,9.0,0.3,question_agency,question_agency_line_inverted,-21.0,6.0,7.0,12.0,18.0,-0.10485289580002946,0.18129847799495674,5
21,4,1,21,37,html-slider-response,37,167133,5833.0,3.0,0.4,question_agency,question_agency_line_inverted,-37.0,4.0,7.0,8.0,8.0,0.5129201812968309,-0.2525042855678392,1
20,4,1,20,86,html-slider-response,86,401014,5930.0,0.0,0.4,question_agency,question_agency_line_inverted,-40.0,9.0,9.0,9.0,12.0,0.01329879123448678,-0.24814814204961644,2
22,4,1,22,93,html-slider-response,93,469047,13064.0,8.0,0.4,question_agency,question_agency_line_inverted,-32.0,8.0,8.0,9.0,9.0,-0.11495937375412878,-0.401803368164026,3
23,4,1,23,139,html-slider-response,139,698504,3797.0,16.0,0.4,question_agency,question_agency_line_inverted,-24.0,5.0,9.0,8.0,7.0,0.3016719423701749,-0.19397709574134406,4
24,4,1,24,179,html-slider-response,179,949037,5207.0,15.0,0.4,question_agency,question_agency_line_inverted,-25.0,4.0,6.0,14.0,14.0,-0.0719177132382139,0.2571312624324971,5
28,4,1,28,28,html-slider-response,28,124029,4311.0,40.0,0.5,question_agency,question_agency_line_inverted,-10.0,6.0,7.0,11.0,9.0,0.44019819789584597,0.13295583744432346,1
26,4,1,26,80,html-slider-response,80,373196,4635.0,4.0,0.5,question_agency,question_agency_line_inverted,-46.0,10.0,6.0,6.0,9.0,0.32014858457553697,0.2551342738182212,2
29,4,1,29,117,html-slider-response,117,597990,6101.0,77.0,0.5,question_agency,question_agency_line_inverted,27.0,8.0,5.0,7.0,8.0,0.11962861684086032,-0.12274744644719096,3
27,4,1,27,145,html-slider-response,145,726816,5713.0,20.0,0.5,question_agency,question_agency_line_inverted,-30.0,4.0,5.0,10.0,4.0,-0.014118382141987374,0.022349306586120866,4
25,4,1,25,170,html-slider-response,170,905639,6073.0,26.0,0.5,question_agency,question_agency_line_inverted,-24.0,8.0,6.0,10.0,10.0,-0.1497512923315442,-0.12199693386712804,5
31,4,1,31,22,html-slider-response,22,96946,6065.0,40.0,0.6,question_agency,question_agency_line_inverted,-20.0,9.0,7.0,10.0,12.0,0.03313031941959043,0.07861043147420335,1
34,4,1,34,65,html-slider-response,65,304842,6550.0,81.0,0.6,question_agency,question_agency_line_inverted,21.0,6.0,6.0,4.0,4.0,-0.09888998105405089,0.22025972050220757,2
33,4,1,33,108,html-slider-response,108,544581,6509.0,10.0,0.6,question_agency,question_agency_line_inverted,-50.0,6.0,7.0,9.0,14.0,-0.15461656453688633,-0.07813179531869807,3
30,4,1,30,142,html-slider-response,142,712081,4565.0,34.0,0.6,question_agency,question_agency_line_inverted,-26.0,8.0,6.0,10.0,11.0,0.015527258642963612,-0.05844653547889744,4
32,4,1,32,188,html-slider-response,188,991078,5126.0,31.0,0.6,question_agency,question_agency_line_inverted,-29.0,8.0,9.0,10.0,10.0,-0.17724166872247565,0.09057831839663456,5
35,4,1,35,34,html-slider-response,34,152283,6434.0,72.0,0.7,question_agency,question_agency_line_inverted,2.0,6.0,5.0,9.0,12.0,0.11152348641490488,-0.19000163104217732,1
36,4,1,36,59,html-slider-response,59,274607,4666.0,92.0,0.7,question_agency,question_agency_line_inverted,22.0,6.0,6.0,7.0,10.0,-0.18324936600064873,0.037659817997811935,2
37,4,1,37,120,html-slider-response,120,611340,4333.0,90.0,0.7,question_agency,question_agency_line_inverted,20.0,4.0,7.0,6.0,7.0,0.2059296286325125,0.38161216829588906,3
38,4,1,38,130,html-slider-response,130,654323,4464.0,70.0,0.7,question_agency,question_agency_line_inverted,0.0,7.0,7.0,8.0,20.0,-0.1291751241709717,-0.02421736760256228,4
39,4,1,39,185,html-slider-response,185,976941,4730.0,24.0,0.7,question_agency,question_agency_line_inverted,-46.0,11.0,7.0,10.0,11.0,-0.3766733474419819,0.32567359908435634,5
40,4,1,40,31,html-slider-response,31,136832,3783.0,93.0,0.8,question_agency,question_agency_line_inverted,13.0,5.0,10.0,10.0,11.0,0.26436834881663074,-0.02388980296159547,1
42,4,1,42,56,html-slider-response,56,260923,6009.0,94.0,0.8,question_agency,question_agency_line_inverted,14.0,7.0,6.0,8.0,10.0,0.01541855575215994,-0.04634316667579528,2
43,4,1,43,114,html-slider-response,114,582871,4234.0,91.0,0.8,question_agency,question_agency_line_inverted,11.0,7.0,9.0,13.0,15.0,0.08045033306587276,-0.08107136764945638,3
41,4,1,41,124,html-slider-response,124,626065,4072.0,90.0,0.8,question_agency,question_agency_line_inverted,10.0,7.0,8.0,13.0,15.0,-0.14898779070562881,-0.0971323078679475,4
44,4,1,44,161,html-slider-response,161,824519,4662.0,95.0,0.8,question_agency,question_agency_line_inverted,15.0,8.0,9.0,8.0,8.0,0.15006998242855613,-0.22210000283669193,5
46,4,1,46,52,html-slider-response,52,241922,4613.0,100.0,0.9,question_agency,question_agency_line_inverted,10.0,6.0,7.0,9.0,11.0,-0.00343290313823764,0.14005359794147132,1
49,4,1,49,62,html-slider-response,62,289274,5650.0,100.0,0.9,question_agency,question_agency_line_inverted,10.0,8.0,5.0,11.0,14.0,0.5471895869517431,-0.07363631277690237,2
45,4,1,45,99,html-slider-response,99,499835,6908.0,89.0,0.9,question_agency,question_agency_line_inverted,-1.0,3.0,8.0,16.0,18.0,0.14576506920937207,0.19484718180758345,3
48,4,1,48,133,html-slider-response,133,668060,4712.0,94.0,0.9,question_agency,question_agency_line_inverted,4.0,6.0,5.0,9.0,10.0,0.08618991194650358,0.3139081324663309,4
47,4,1,47,164,html-slider-response,164,876580,43040.0,31.0,0.9,question_agency,question_agency_line_inverted,-59.0,9.0,4.0,6.0,7.0,0.036169421167540544,-0.06148234167761715,5
51,4,1,51,46,html-slider-response,46,213920,8967.0,15.0,1.0,question_agency,question_agency_line_inverted,-85.0,9.0,9.0,0.0,0.0,0.0,0.0,1
53,4,1,53,83,html-slider-response,83,386063,3851.0,98.0,1.0,question_agency,question_agency_line_inverted,-2.0,8.0,5.0,0.0,1.0,0.0,0.10764763554362802,2
54,4,1,54,96,html-slider-response,96,483912,5850.0,95.0,1.0,question_agency,question_agency_line_inverted,-5.0,4.0,7.0,10.0,16.0,-0.013781193669719794,-0.2942156894364168,3
50,4,1,50,148,html-slider-response,148,744739,8906.0,100.0,1.0,question_agency,question_agency_line_inverted,0.0,8.0,6.0,7.0,13.0,-0.34399367925569513,0.021825521712800774,4
52,4,1,52,176,html-slider-response,176,934797,4774.0,100.0,1.0,question_agency,question_agency_line_inverted,0.0,6.0,8.0,12.0,9.0,-0.22415854788922784,0.2121213089445109,5
3,5,1,3,46,html-slider-response,46,168607,2253.0,10.0,0.0,question_agency,question_agency_line_inverted,10.0,8.0,5.0,8.0,5.0,-0.4527609095377604,0.08181205347490987,1
4,5,1,4,68,html-slider-response,68,251817,2347.0,0.0,0.0,question_agency,question_agency_line_inverted,0.0,7.0,5.0,125.0,69.0,-0.03548611889907451,-0.2095370837225096,2
0,5,1,0,90,html-slider-response,90,330537,2810.0,0.0,0.0,question_agency,question_agency_line_inverted,0.0,10.0,5.0,12.0,14.0,-0.31623527556932174,-0.30078465067075727,3
2,5,1,2,142,html-slider-response,142,514627,1623.0,0.0,0.0,question_agency,question_agency_line_inverted,0.0,7.0,4.0,8.0,4.0,-0.48390989276658564,-0.2758428609495861,4
1,5,1,1,158,html-slider-response,158,571229,1557.0,0.0,0.0,question_agency,question_agency_line_inverted,0.0,6.0,5.0,17.0,2.0,-0.15031483459540365,-0.016081755778828383,5
9,5,1,9,49,html-slider-response,49,182249,4638.0,6.0,0.1,question_agency,question_agency_line_inverted,-4.0,7.0,6.0,3.0,3.0,0.2465144816866046,-0.6724427720970421,1
8,5,1,8,71,html-slider-response,71,262750,2226.0,0.0,0.1,question_agency,question_agency_line_inverted,-10.0,11.0,7.0,63.0,51.0,0.12487650914873889,-0.06739538939405093,2
5,5,1,5,102,html-slider-response,102,373828,2067.0,0.0,0.1,question_agency,question_agency_line_inverted,-10.0,9.0,7.0,21.0,36.0,0.07999834450711435,-0.2349707699077614,3
7,5,1,7,148,html-slider-response,148,538134,4831.0,11.0,0.1,question_agency,question_agency_line_inverted,1.0,6.0,6.0,36.0,45.0,0.04550269207544062,-0.0901661642437649,4
6,5,1,6,170,html-slider-response,170,617462,1845.0,5.0,0.1,question_agency,question_agency_line_inverted,-5.0,8.0,7.0,13.0,12.0,0.042302089919030034,-0.01483067859475404,5
13,5,1,13,43,html-slider-response,43,157348,2307.0,14.0,0.2,question_agency,question_agency_line_inverted,-6.0,5.0,3.0,8.0,8.0,-0.1441928281274505,-0.6842907932199527,1
10,5,1,10,74,html-slider-response,74,273787,2034.0,0.0,0.2,question_agency,question_agency_line_inverted,-20.0,9.0,6.0,14.0,10.0,-0.2620703248494832,-0.249177257251892,2
12,5,1,12,105,html-slider-response,105,384545,1714.0,0.0,0.2,question_agency,question_agency_line_inverted,-20.0,5.0,7.0,10.0,10.0,-0.34207559186987213,-0.32012263952680214,3
11,5,1,11,130,html-slider-response,130,472255,1861.0,0.0,0.2,question_agency,question_agency_line_inverted,-20.0,11.0,10.0,10.0,6.0,0.12037461507051933,-0.1691974926546624,4
14,5,1,14,173,html-slider-response,173,629784,3313.0,6.0,0.2,question_agency,question_agency_line_inverted,-14.0,7.0,8.0,38.0,34.0,-0.06913845195124814,-0.12272261435936735,5
19,5,1,19,52,html-slider-response,52,194313,3055.0,12.0,0.3,question_agency,question_agency_line_inverted,-18.0,5.0,9.0,8.0,10.0,-0.238689330346485,-0.2806349612648102,1
17,5,1,17,80,html-slider-response,80,294836,1492.0,6.0,0.3,question_agency,question_agency_line_inverted,-24.0,6.0,6.0,19.0,22.0,-0.010684311448339888,-0.3322790582784366,2
15,5,1,15,111,html-slider-response,111,407774,1734.0,2.0,0.3,question_agency,question_agency_line_inverted,-28.0,7.0,9.0,9.0,6.0,-0.007600959583381745,-0.15093950686975788,3
18,5,1,18,139,html-slider-response,139,504001,1552.0,2.0,0.3,question_agency,question_agency_line_inverted,-28.0,4.0,7.0,12.0,5.0,-0.2723211352423576,0.39560149386580323,4
16,5,1,16,167,html-slider-response,167,606613,4629.0,12.0,0.3,question_agency,question_agency_line_inverted,-18.0,3.0,8.0,47.0,30.0,-0.11374296447846648,-0.07122187215698321,5
23,5,1,23,34,html-slider-response,34,123069,2112.0,1.0,0.4,question_agency,question_agency_line_inverted,-39.0,10.0,8.0,13.0,9.0,0.1736704830240127,-0.5257457517550692,1
24,5,1,24,59,html-slider-response,59,219243,1398.0,3.0,0.4,question_agency,question_agency_line_inverted,-37.0,8.0,8.0,15.0,23.0,0.028476848031906723,-0.09832358460428443,2
21,5,1,21,93,html-slider-response,93,341318,1778.0,48.0,0.4,question_agency,question_agency_line_inverted,8.0,7.0,6.0,12.0,15.0,0.18635546458572597,-0.04199370997744291,3
20,5,1,20,124,html-slider-response,124,451532,1485.0,0.0,0.4,question_agency,question_agency_line_inverted,-40.0,5.0,4.0,8.0,5.0,-0.22201319873621217,-0.39596301958546115,4
22,5,1,22,188,html-slider-response,188,695715,3765.0,33.0,0.4,question_agency,question_agency_line_inverted,-7.0,6.0,8.0,17.0,13.0,0.12409148971770512,0.07472477007823966,5
26,5,1,26,25,html-slider-response,25,89066,2311.0,22.0,0.5,question_agency,question_agency_line_inverted,-28.0,5.0,9.0,11.0,9.0,-0.3403364771384235,-0.3483086200842694,1
25,5,1,25,83,html-slider-response,83,306206,2362.0,60.0,0.5,question_agency,question_agency_line_inverted,10.0,9.0,8.0,15.0,19.0,0.10042450975112965,-0.3197785891538046,2
28,5,1,28,117,html-slider-response,117,428074,2229.0,38.0,0.5,question_agency,question_agency_line_inverted,-12.0,8.0,10.0,13.0,11.0,0.009262001180099995,-0.4606768277945705,3
29,5,1,29,133,html-slider-response,133,483182,1923.0,51.0,0.5,question_agency,question_agency_line_inverted,1.0,5.0,6.0,24.0,20.0,-0.5336172828602767,-0.05097022927100721,4
27,5,1,27,161,html-slider-response,161,581198,966.0,51.0,0.5,question_agency,question_agency_line_inverted,1.0,7.0,8.0,23.0,20.0,0.01515522908764458,0.16965693583206418,5
30,5,1,30,28,html-slider-response,28,100514,2439.0,87.0,0.6,question_agency,question_agency_line_inverted,27.0,5.0,4.0,15.0,22.0,0.08221042126461477,-0.35430464780146254,1
33,5,1,33,62,html-slider-response,62,229087,1277.0,21.0,0.6,question_agency,question_agency_line_inverted,-39.0,8.0,3.0,34.0,38.0,-0.23389662724457827,-0.16719423503901873,2
32,5,1,32,114,html-slider-response,114,417299,891.0,48.0,0.6,question_agency,question_agency_line_inverted,-12.0,9.0,9.0,30.0,20.0,-0.24640003143946204,0.04682934892172083,3
34,5,1,34,127,html-slider-response,127,461666,1126.0,58.0,0.6,question_agency,question_agency_line_inverted,-2.0,9.0,8.0,8.0,23.0,0.18550125613335505,-0.29298599112288176,4
31,5,1,31,164,html-slider-response,164,592982,2769.0,51.0,0.6,question_agency,question_agency_line_inverted,-9.0,9.0,10.0,23.0,16.0,-0.10014245061425078,-0.09822925327710061,5
37,5,1,37,40,html-slider-response,40,146038,2560.0,91.0,0.7,question_agency,question_agency_line_inverted,21.0,8.0,9.0,19.0,35.0,-0.06119707570638149,-0.20020998767630735,1
38,5,1,38,56,html-slider-response,56,208836,3256.0,83.0,0.7,question_agency,question_agency_line_inverted,13.0,5.0,6.0,13.0,18.0,-0.2976554219424985,0.021618923456020983,2
39,5,1,39,99,html-slider-response,99,362925,2150.0,67.0,0.7,question_agency,question_agency_line_inverted,-3.0,6.0,8.0,35.0,23.0,0.17273765482861617,-0.35689275801310716,3
36,5,1,36,151,html-slider-response,151,549137,1999.0,70.0,0.7,question_agency,question_agency_line_inverted,0.0,10.0,9.0,9.0,6.0,0.06602355391704277,-0.0625805570108811,4
35,5,1,35,182,html-slider-response,182,669633,5416.0,6.0,0.7,question_agency,question_agency_line_inverted,-64.0,8.0,5.0,4.0,9.0,-0.0018245667073038018,-0.29309241746902953,5
44,5,1,44,22,html-slider-response,22,77748,3896.0,99.0,0.8,question_agency,question_agency_line_inverted,19.0,4.0,10.0,12.0,14.0,-0.4150890102055492,-0.09995272452047992,1
42,5,1,42,77,html-slider-response,77,284339,1543.0,98.0,0.8,question_agency,question_agency_line_inverted,18.0,5.0,8.0,14.0,25.0,0.12488027196330023,-0.04823890621188836,2
41,5,1,41,120,html-slider-response,120,438786,1706.0,82.0,0.8,question_agency,question_agency_line_inverted,2.0,5.0,8.0,32.0,42.0,-0.3536500600512282,0.045206060008309526,3
40,5,1,40,145,html-slider-response,145,525116,1480.0,95.0,0.8,question_agency,question_agency_line_inverted,15.0,8.0,5.0,17.0,33.0,0.09479420537667581,-0.26655448271434984,4
43,5,1,43,179,html-slider-response,179,655210,6794.0,98.0,0.8,question_agency,question_agency_line_inverted,18.0,5.0,7.0,77.0,55.0,0.002106197647044311,0.05474492069975121,5
46,5,1,46,37,html-slider-response,37,134470,2395.0,85.0,0.9,question_agency,question_agency_line_inverted,-5.0,2.0,6.0,30.0,29.0,0.04323603371074645,0.10502268978498039,1
47,5,1,47,65,html-slider-response,65,240467,3075.0,83.0,0.9,question_agency,question_agency_line_inverted,-7.0,5.0,6.0,35.0,55.0,0.17204938353207813,0.05058217122871688,2
48,5,1,48,108,html-slider-response,108,397036,3488.0,95.0,0.9,question_agency,question_agency_line_inverted,5.0,6.0,5.0,26.0,8.0,-0.01675858236415184,0.12243867957929103,3
45,5,1,45,136,html-slider-response,136,493445,1566.0,98.0,0.9,question_agency,question_agency_line_inverted,8.0,2.0,6.0,54.0,55.0,0.22977993102653171,0.020066899862019788,4
49,5,1,49,176,html-slider-response,176,640269,1483.0,93.0,0.9,question_agency,question_agency_line_inverted,3.0,7.0,8.0,85.0,56.0,0.05489025544089461,0.015453983478441383,5
52,5,1,52,31,html-slider-response,31,111951,2432.0,82.0,1.0,question_agency,question_agency_line_inverted,-18.0,5.0,6.0,39.0,40.0,-0.1317925524278611,-0.1379155640697074,1
54,5,1,54,86,html-slider-response,86,317631,2419.0,91.0,1.0,question_agency,question_agency_line_inverted,-9.0,5.0,6.0,51.0,58.0,-0.016314717934413338,0.09437636246486233,2
53,5,1,53,96,html-slider-response,96,351800,1476.0,100.0,1.0,question_agency,question_agency_line_inverted,0.0,11.0,7.0,61.0,48.0,-0.04529520414639408,-0.055419824551622046,3
50,5,1,50,154,html-slider-response,154,559066,1311.0,97.0,1.0,question_agency,question_agency_line_inverted,-3.0,6.0,9.0,72.0,52.0,-0.03804674165795284,0.0003064332824733234,4
51,5,1,51,185,html-slider-response,185,682946,4310.0,94.0,1.0,question_agency,question_agency_line_inverted,-6.0,9.0,8.0,62.0,46.0,0.03648888866969332,0.10196938769710538,5
2,6,1,2,52,html-slider-response,52,248847,2817.0,0.0,0.0,question_agency,question_agency_line_inverted,0.0,7.0,6.0,10.0,6.0,0.0961971513796995,0.17588327026149972,1
4,6,1,4,74,html-slider-response,74,338032,2444.0,0.0,0.0,question_agency,question_agency_line_inverted,0.0,7.0,8.0,29.0,22.0,-0.23230497912007594,-0.2137794960663634,2
3,6,1,3,120,html-slider-response,120,513871,3166.0,0.0,0.0,question_agency,question_agency_line_inverted,0.0,5.0,8.0,10.0,8.0,0.3902577466947126,0.1232207820471191,3
1,6,1,1,139,html-slider-response,139,587270,3101.0,0.0,0.0,question_agency,question_agency_line_inverted,0.0,5.0,6.0,14.0,21.0,-0.2672518349325597,-0.01447563296675045,4
0,6,1,0,185,html-slider-response,185,765331,4699.0,40.0,0.0,question_agency,question_agency_line_inverted,40.0,6.0,6.0,6.0,10.0,-0.13250984019745304,-0.05301837029881256,5
6,6,1,6,49,html-slider-response,49,237025,2874.0,0.0,0.1,question_agency,question_agency_line_inverted,-10.0,6.0,6.0,12.0,9.0,-0.11862341455421786,-0.10185147139025945,1
9,6,1,9,65,html-slider-response,65,303189,3155.0,21.0,0.1,question_agency,question_agency_line_inverted,11.0,6.0,9.0,13.0,6.0,-0.291221459796961,0.47116579668235176,2
7,6,1,7,99,html-slider-response,99,431587,1855.0,14.0,0.1,question_agency,question_agency_line_inverted,4.0,7.0,7.0,15.0,10.0,0.3724148432122161,0.23131012396807143,3
8,6,1,8,148,html-slider-response,148,621088,2449.0,0.0,0.1,question_agency,question_agency_line_inverted,-10.0,8.0,7.0,12.0,7.0,0.013418373139723595,-0.1391666777611945,4
5,6,1,5,161,html-slider-response,161,670084,2686.0,0.0,0.1,question_agency,question_agency_line_inverted,-10.0,5.0,8.0,33.0,26.0,-0.1406041323320981,-0.141760180557086,5
10,6,1,10,37,html-slider-response,37,188065,3747.0,9.0,0.2,question_agency,question_agency_line_inverted,-11.0,7.0,5.0,9.0,14.0,0.028688349576573326,-0.2940013146065019,1
12,6,1,12,68,html-slider-response,68,315077,2880.0,13.0,0.2,question_agency,question_agency_line_inverted,-7.0,7.0,7.0,12.0,10.0,0.225923211952732,-0.14250037482921718,2
11,6,1,11,93,html-slider-response,93,409327,2874.0,34.0,0.2,question_agency,question_agency_line_inverted,14.0,6.0,9.0,5.0,9.0,0.6575871745023705,0.10268492488594505,3
14,6,1,14,130,html-slider-response,130,552771,2318.0,0.0,0.2,question_agency,question_agency_line_inverted,-20.0,7.0,5.0,28.0,10.0,-0.358272464338172,-0.08820098906742954,4
13,6,1,13,179,html-slider-response,179,739508,2234.0,0.0,0.2,question_agency,question_agency_line_inverted,-20.0,9.0,5.0,10.0,6.0,0.12092652717693901,-0.09615792089296075,5
18,6,1,18,31,html-slider-response,31,161570,6147.0,32.0,0.3,question_agency,question_agency_line_inverted,2.0,10.0,9.0,11.0,9.0,0.29882862276940847,0.3005605471860632,1
19,6,1,19,62,html-slider-response,62,291025,4490.0,43.0,0.3,question_agency,question_agency_line_inverted,13.0,8.0,6.0,11.0,10.0,0.2450836903701364,-0.22280363036813505,2
16,6,1,16,90,html-slider-response,90,397445,2308.0,34.0,0.3,question_agency,question_agency_line_inverted,4.0,7.0,8.0,17.0,16.0,-0.38069271853494535,0.04350628633555537,3
15,6,1,15,133,html-slider-response,133,563866,2084.0,6.0,0.3,question_agency,question_agency_line_inverted,-24.0,5.0,8.0,5.0,11.0,-0.10064811541948676,0.2333416497862511,4
17,6,1,17,188,html-slider-response,188,776751,2406.0,37.0,0.3,question_agency,question_agency_line_inverted,7.0,5.0,8.0,10.0,8.0,0.030515500942300898,0.052670465508703176,5
22,6,1,22,34,html-slider-response,34,175300,4723.0,21.0,0.4,question_agency,question_agency_line_inverted,-19.0,5.0,8.0,14.0,13.0,-0.3676162911545639,-0.035205761331952114,1
21,6,1,21,56,html-slider-response,56,266559,2596.0,0.0,0.4,question_agency,question_agency_line_inverted,-40.0,7.0,9.0,9.0,8.0,-0.34582482641787127,-0.0775243484948438,2
20,6,1,20,102,html-slider-response,102,443238,2646.0,40.0,0.4,question_agency,question_agency_line_inverted,0.0,7.0,7.0,7.0,11.0,-0.0025201586597408733,0.3031239042954377,3
24,6,1,24,142,html-slider-response,142,598544,2262.0,64.0,0.4,question_agency,question_agency_line_inverted,24.0,9.0,8.0,16.0,7.0,0.3751542782081108,0.25221517287043826,4
23,6,1,23,176,html-slider-response,176,728268,2208.0,55.0,0.4,question_agency,question_agency_line_inverted,15.0,6.0,4.0,7.0,6.0,0.007426094341557538,0.2661027968038931,5
28,6,1,28,22,html-slider-response,22,120155,6584.0,75.0,0.5,question_agency,question_agency_line_inverted,25.0,6.0,7.0,11.0,15.0,-0.3490169873019926,-0.009109463638516353,1
29,6,1,29,86,html-slider-response,86,384379,2579.0,45.0,0.5,question_agency,question_agency_line_inverted,-5.0,7.0,7.0,11.0,12.0,-0.12079809317916328,-0.12885191463839882,2
27,6,1,27,108,html-slider-response,108,466637,2288.0,79.0,0.5,question_agency,question_agency_line_inverted,29.0,3.0,6.0,11.0,10.0,0.21896847128499913,0.3389522830722495,3
25,6,1,25,151,html-slider-response,151,634521,4421.0,57.0,0.5,question_agency,question_agency_line_inverted,7.0,1.0,5.0,4.0,7.0,-0.019425634545055213,-0.48683037294484993,4
26,6,1,26,158,html-slider-response,158,658395,2001.0,50.0,0.5,question_agency,question_agency_line_inverted,0.0,8.0,5.0,11.0,5.0,-0.10858514946944664,0.31093458088979437,5
32,6,1,32,28,html-slider-response,28,146417,4547.0,77.0,0.6,question_agency,question_agency_line_inverted,17.0,3.0,7.0,12.0,15.0,0.44602267690377545,-0.12369799496353819,1
34,6,1,34,71,html-slider-response,71,326579,2488.0,68.0,0.6,question_agency,question_agency_line_inverted,8.0,7.0,4.0,4.0,11.0,0.03155839703679203,-0.5500901073133099,2
30,6,1,30,105,html-slider-response,105,455343,3099.0,52.0,0.6,question_agency,question_agency_line_inverted,-8.0,6.0,5.0,7.0,5.0,-0.26091797861767074,-0.7344869059243019,3
33,6,1,33,154,html-slider-response,154,645938,2409.0,76.0,0.6,question_agency,question_agency_line_inverted,16.0,4.0,7.0,6.0,9.0,0.011107684611634801,0.006894608638997805,4
31,6,1,31,182,html-slider-response,182,751630,3110.0,52.0,0.6,question_agency,question_agency_line_inverted,-8.0,8.0,6.0,10.0,22.0,-0.13309917386465034,-0.27259806882685417,5
36,6,1,36,40,html-slider-response,40,200957,3885.0,94.0,0.7,question_agency,question_agency_line_inverted,24.0,5.0,6.0,17.0,19.0,-0.32272813425934804,-0.3620633862837159,1
38,6,1,38,59,html-slider-response,59,277524,1961.0,83.0,0.7,question_agency,question_agency_line_inverted,13.0,5.0,5.0,6.0,15.0,0.27937364897325073,0.3782274369657992,2
39,6,1,39,117,html-slider-response,117,501696,2614.0,92.0,0.7,question_agency,question_agency_line_inverted,22.0,4.0,6.0,9.0,25.0,0.4547110282672164,0.06533195296103338,3
37,6,1,37,145,html-slider-response,145,609635,2084.0,79.0,0.7,question_agency,question_agency_line_inverted,9.0,7.0,5.0,10.0,28.0,-0.33182116401194045,-0.008183178603112793,4
35,6,1,35,164,html-slider-response,164,681746,2647.0,71.0,0.7,question_agency,question_agency_line_inverted,1.0,7.0,8.0,15.0,26.0,-0.003377689021685625,-0.2820398602805622,5
40,6,1,40,46,html-slider-response,46,225147,3344.0,87.0,0.8,question_agency,question_agency_line_inverted,7.0,7.0,8.0,8.0,11.0,0.2040006908403212,0.3151300180948261,1
43,6,1,43,77,html-slider-response,77,349243,2207.0,92.0,0.8,question_agency,question_agency_line_inverted,12.0,5.0,5.0,9.0,19.0,-0.24098335179064082,-0.3573305160645187,2
44,6,1,44,111,html-slider-response,111,477535,1891.0,90.0,0.8,question_agency,question_agency_line_inverted,10.0,8.0,7.0,14.0,11.0,-0.31881930835516026,-0.011256966610076144,3
41,6,1,41,124,html-slider-response,124,528267,3623.0,84.0,0.8,question_agency,question_agency_line_inverted,4.0,7.0,7.0,13.0,35.0,-0.4025375458003323,-0.5051152140647674,4
42,6,1,42,167,html-slider-response,167,692999,2245.0,86.0,0.8,question_agency,question_agency_line_inverted,6.0,6.0,7.0,11.0,41.0,0.1791745469338593,0.02234915992472563,5
48,6,1,48,43,html-slider-response,43,212792,2831.0,92.0,0.9,question_agency,question_agency_line_inverted,2.0,6.0,9.0,8.0,8.0,-0.3245012822551994,0.07708177332189899,1
47,6,1,47,83,html-slider-response,83,372787,2299.0,92.0,0.9,question_agency,question_agency_line_inverted,2.0,6.0,7.0,11.0,16.0,0.38022407810840503,0.48080233052872456,2
46,6,1,46,96,html-slider-response,96,420718,2382.0,86.0,0.9,question_agency,question_agency_line_inverted,-4.0,6.0,10.0,19.0,12.0,0.10771657358851133,0.051810265808234814,3
45,6,1,45,136,html-slider-response,136,575159,2284.0,92.0,0.9,question_agency,question_agency_line_inverted,2.0,7.0,7.0,12.0,17.0,-0.18234395446644414,-0.04314736465885499,4
49,6,1,49,173,html-slider-response,173,717056,2705.0,97.0,0.9,question_agency,question_agency_line_inverted,7.0,8.0,8.0,10.0,13.0,0.25809525221414764,0.4792186523828134,5
53,6,1,53,25,html-slider-response,25,132867,3704.0,100.0,1.0,question_agency,question_agency_line_inverted,0.0,6.0,5.0,19.0,17.0,0.1606697413568286,0.16996937386874614,1
50,6,1,50,80,html-slider-response,80,361486,3237.0,100.0,1.0,question_agency,question_agency_line_inverted,0.0,6.0,4.0,11.0,11.0,0.053572661105101387,-0.2940885302454135,2
54,6,1,54,114,html-slider-response,114,490072,3533.0,100.0,1.0,question_agency,question_agency_line_inverted,0.0,9.0,5.0,8.0,14.0,0.0752984126616308,0.2259846136477567,3
51,6,1,51,127,html-slider-response,127,541445,4172.0,100.0,1.0,question_agency,question_agency_line_inverted,0.0,7.0,6.0,11.0,14.0,0.20013300989095786,-0.04518333150964269,4
52,6,1,52,170,html-slider-response,170,705344,3337.0,100.0,1.0,question_agency,question_agency_line_inverted,0.0,6.0,6.0,13.0,15.0,0.05531556276743169,0.35652860245933526,5
3,7,1,3,37,html-slider-response,37,233306,3338.0,0.0,0.0,question_agency,question_agency_line_inverted,0.0,5.0,6.0,20.0,18.0,-0.3004662117410706,-0.14119409102245706,1
0,7,1,0,68,html-slider-response,68,358391,2258.0,0.0,0.0,question_agency,question_agency_line_inverted,0.0,8.0,9.0,16.0,6.0,-0.09597029590018487,-0.21106348171396896,2
2,7,1,2,111,html-slider-response,111,524497,2231.0,0.0,0.0,question_agency,question_agency_line_inverted,0.0,7.0,7.0,13.0,10.0,0.08039674085556583,0.05640889496066765,3
1,7,1,1,145,html-slider-response,145,657686,2347.0,0.0,0.0,question_agency,question_agency_line_inverted,0.0,5.0,9.0,12.0,16.0,0.25246820466839337,-0.031668301380037074,4
4,7,1,4,176,html-slider-response,176,777840,2975.0,0.0,0.0,question_agency,question_agency_line_inverted,0.0,5.0,9.0,13.0,8.0,-0.1836229305287516,-0.09400049543690825,5
9,7,1,9,28,html-slider-response,28,196907,3329.0,2.0,0.1,question_agency,question_agency_line_inverted,-8.0,6.0,8.0,15.0,18.0,0.40561492340877536,-0.29429843392057337,1
7,7,1,7,80,html-slider-response,80,407911,4443.0,0.0,0.1,question_agency,question_agency_line_inverted,-10.0,6.0,9.0,18.0,6.0,-0.027242038389225662,0.20886810572324244,2
8,7,1,8,114,html-slider-response,114,536184,2685.0,4.0,0.1,question_agency,question_agency_line_inverted,-6.0,8.0,10.0,13.0,10.0,-0.22963747703756646,0.38148001370680135,3
6,7,1,6,142,html-slider-response,142,646335,4035.0,3.0,0.1,question_agency,question_agency_line_inverted,-7.0,5.0,4.0,15.0,10.0,-0.2362963748805466,-0.1264928233874121,4
5,7,1,5,185,html-slider-response,185,811804,2472.0,5.0,0.1,question_agency,question_agency_line_inverted,-5.0,6.0,5.0,9.0,3.0,-0.03403378262475787,-0.37274327239870764,5
10,7,1,10,52,html-slider-response,52,294777,3479.0,5.0,0.2,question_agency,question_agency_line_inverted,-15.0,7.0,7.0,21.0,10.0,-0.2482680750789822,-0.012163301934930473,1
13,7,1,13,65,html-slider-response,65,347127,3027.0,6.0,0.2,question_agency,question_agency_line_inverted,-14.0,8.0,6.0,11.0,8.0,-0.6128765069892956,-0.3133462557970034,2
14,7,1,14,120,html-slider-response,120,560456,3857.0,20.0,0.2,question_agency,question_agency_line_inverted,0.0,7.0,5.0,11.0,9.0,0.020733780670318894,0.09247750448486539,3
12,7,1,12,148,html-slider-response,148,673040,6342.0,1.0,0.2,question_agency,question_agency_line_inverted,-19.0,10.0,9.0,17.0,18.0,-0.035220333935131666,-0.029166434303939046,4
11,7,1,11,170,html-slider-response,170,754213,2113.0,9.0,0.2,question_agency,question_agency_line_inverted,-11.0,4.0,6.0,13.0,8.0,-0.1329247712536151,0.11157174309117193,5
19,7,1,19,49,html-slider-response,49,282292,3074.0,12.0,0.3,question_agency,question_agency_line_inverted,-18.0,7.0,5.0,12.0,10.0,-0.27221684082413805,0.233299295471502,1
15,7,1,15,83,html-slider-response,83,419505,2589.0,5.0,0.3,question_agency,question_agency_line_inverted,-25.0,7.0,10.0,11.0,5.0,-0.5119638326573254,-0.06896038295018392,2
16,7,1,16,108,html-slider-response,108,513260,1945.0,7.0,0.3,question_agency,question_agency_line_inverted,-23.0,9.0,5.0,15.0,6.0,-0.2114870646273021,-0.10427863144182029,3
18,7,1,18,133,html-slider-response,133,610262,3279.0,11.0,0.3,question_agency,question_agency_line_inverted,-19.0,7.0,10.0,10.0,8.0,0.03410076151431692,-0.03139458156395711,4
17,7,1,17,188,html-slider-response,188,823115,2305.0,9.0,0.3,question_agency,question_agency_line_inverted,-21.0,7.0,6.0,13.0,16.0,-0.27113719219768806,-0.08484529518212638,5
24,7,1,24,31,html-slider-response,31,209455,3544.0,14.0,0.4,question_agency,question_agency_line_inverted,-26.0,8.0,2.0,14.0,7.0,0.13023971778382032,-0.709332071487118,1
20,7,1,20,77,html-slider-response,77,394464,2764.0,33.0,0.4,question_agency,question_agency_line_inverted,-7.0,8.0,8.0,9.0,9.0,-0.25834367441437395,-0.08758459989388107,2
22,7,1,22,90,html-slider-response,90,443231,2301.0,46.0,0.4,question_agency,question_agency_line_inverted,6.0,11.0,9.0,15.0,13.0,-0.1481825068917431,0.09895171106341402,3
21,7,1,21,139,html-slider-response,139,633296,1984.0,24.0,0.4,question_agency,question_agency_line_inverted,-16.0,9.0,7.0,14.0,11.0,0.1176809670615544,-0.5731307795889911,4
23,7,1,23,167,html-slider-response,167,743097,1932.0,28.0,0.4,question_agency,question_agency_line_inverted,-12.0,4.0,7.0,11.0,8.0,-0.23115162994518904,-0.07937604145665461,5
29,7,1,29,46,html-slider-response,46,270213,2595.0,29.0,0.5,question_agency,question_agency_line_inverted,-21.0,9.0,7.0,14.0,9.0,-0.0056956520088218745,0.025688972650127512,1
27,7,1,27,74,html-slider-response,74,382686,3269.0,56.0,0.5,question_agency,question_agency_line_inverted,6.0,7.0,7.0,8.0,11.0,-0.07638508662006059,0.187406582890695,2
28,7,1,28,96,html-slider-response,96,465107,1774.0,12.0,0.5,question_agency,question_agency_line_inverted,-38.0,3.0,8.0,17.0,14.0,-0.24374124637257424,-0.23534316628175617,3
26,7,1,26,130,html-slider-response,130,597978,1896.0,34.0,0.5,question_agency,question_agency_line_inverted,-16.0,7.0,7.0,8.0,11.0,0.07696663130106711,-0.1071483414840356,4
25,7,1,25,179,html-slider-response,179,789001,2152.0,21.0,0.5,question_agency,question_agency_line_inverted,-29.0,6.0,6.0,14.0,12.0,0.02403277197099037,0.036574660083133585,5
30,7,1,30,34,html-slider-response,34,220961,2494.0,33.0,0.6,question_agency,question_agency_line_inverted,-27.0,6.0,5.0,16.0,9.0,-0.4600901547055102,-0.33174214649856876,1
34,7,1,34,56,html-slider-response,56,311260,5485.0,86.0,0.6,question_agency,question_agency_line_inverted,26.0,6.0,6.0,15.0,15.0,-0.0871014844669233,-0.02032925316331173,2
31,7,1,31,117,html-slider-response,117,547594,2406.0,82.0,0.6,question_agency,question_agency_line_inverted,22.0,8.0,7.0,14.0,5.0,-0.09480596170032889,-0.08315012806334662,3
32,7,1,32,154,html-slider-response,154,696154,1956.0,43.0,0.6,question_agency,question_agency_line_inverted,-17.0,7.0,7.0,9.0,7.0,-0.09824105373529843,-0.056774553131708094,4
33,7,1,33,164,html-slider-response,164,732152,2644.0,65.0,0.6,question_agency,question_agency_line_inverted,5.0,6.0,8.0,11.0,7.0,0.13995307490466088,0.19260718490955714,5
37,7,1,37,22,html-slider-response,22,172933,9298.0,75.0,0.7,question_agency,question_agency_line_inverted,5.0,8.0,8.0,16.0,20.0,0.06364886247489286,-0.08007656359366522,1
39,7,1,39,62,html-slider-response,62,335095,2828.0,33.0,0.7,question_agency,question_agency_line_inverted,-37.0,8.0,9.0,13.0,10.0,0.26124931741736507,0.25624469623854546,2
38,7,1,38,99,html-slider-response,99,478407,4290.0,90.0,0.7,question_agency,question_agency_line_inverted,20.0,6.0,7.0,21.0,10.0,0.08606453052995287,-0.18450048448761627,3
36,7,1,36,136,html-slider-response,136,622300,3034.0,67.0,0.7,question_agency,question_agency_line_inverted,-3.0,1.0,8.0,10.0,13.0,-0.31333382961346035,-0.11130085958831891,4
35,7,1,35,173,html-slider-response,173,765855,2628.0,32.0,0.7,question_agency,question_agency_line_inverted,-38.0,7.0,8.0,7.0,9.0,-0.22733493141115876,-0.025735404486328356,5
44,7,1,44,43,html-slider-response,43,258615,3547.0,85.0,0.8,question_agency,question_agency_line_inverted,5.0,5.0,7.0,10.0,8.0,0.03883684635492848,-0.23042913574860127,1
42,7,1,42,86,html-slider-response,86,430539,2022.0,80.0,0.8,question_agency,question_agency_line_inverted,0.0,8.0,5.0,21.0,16.0,0.11807002030302806,-0.3843076184935013,2
41,7,1,41,102,html-slider-response,102,490749,3336.0,81.0,0.8,question_agency,question_agency_line_inverted,1.0,7.0,7.0,12.0,8.0,0.009914397314688603,-0.05560349967677239,3
40,7,1,40,124,html-slider-response,124,575857,3543.0,91.0,0.8,question_agency,question_agency_line_inverted,11.0,7.0,7.0,9.0,8.0,-0.08076688839765561,0.01084624152425606,4
43,7,1,43,158,html-slider-response,158,709205,2191.0,86.0,0.8,question_agency,question_agency_line_inverted,6.0,7.0,7.0,7.0,8.0,-0.44582989187824423,-0.22256087161966637,5
46,7,1,46,25,html-slider-response,25,184566,2618.0,83.0,0.9,question_agency,question_agency_line_inverted,-7.0,6.0,5.0,22.0,15.0,0.07227599796708291,-0.2985842379648141,1
47,7,1,47,71,html-slider-response,71,370413,3019.0,95.0,0.9,question_agency,question_agency_line_inverted,5.0,8.0,9.0,9.0,14.0,-0.2265560874540611,-0.2562188905300495,2
48,7,1,48,93,html-slider-response,93,454323,2088.0,94.0,0.9,question_agency,question_agency_line_inverted,4.0,5.0,8.0,7.0,12.0,0.005511645972018082,0.07162885258883625,3
49,7,1,49,127,html-slider-response,127,587077,2212.0,87.0,0.9,question_agency,question_agency_line_inverted,-3.0,10.0,9.0,11.0,8.0,-0.10669267488025906,0.3646360786818492,4
45,7,1,45,182,html-slider-response,182,800318,2304.0,91.0,0.9,question_agency,question_agency_line_inverted,1.0,4.0,6.0,5.0,6.0,-0.5749293991181709,-0.3645168071324834,5
52,7,1,52,40,html-slider-response,40,246063,3751.0,100.0,1.0,question_agency,question_agency_line_inverted,0.0,8.0,7.0,16.0,15.0,0.031057360513721287,0.16047125667523218,1
50,7,1,50,59,html-slider-response,59,323262,2995.0,100.0,1.0,question_agency,question_agency_line_inverted,0.0,6.0,6.0,13.0,15.0,0.4250056509067536,-0.18529643038458082,2
54,7,1,54,105,html-slider-response,105,502297,2543.0,100.0,1.0,question_agency,question_agency_line_inverted,0.0,7.0,4.0,9.0,7.0,0.029989706377387355,0.37352275534023105,3
53,7,1,53,151,html-slider-response,151,685193,3145.0,100.0,1.0,question_agency,question_agency_line_inverted,0.0,4.0,4.0,17.0,12.0,-0.08336294261057053,0.012923431688814565,4
51,7,1,51,161,html-slider-response,161,720504,2289.0,100.0,1.0,question_agency,question_agency_line_inverted,0.0,7.0,8.0,13.0,9.0,-0.12387887196487651,0.08238829739186153,5
3,8,1,3,34,html-slider-response,34,178281,5988.0,0.0,0.0,question_agency,question_agency_line_inverted,0.0,5.0,6.0,19.0,10.0,0.10453773249655586,-0.10208883324642365,1
1,8,1,1,71,html-slider-response,71,366144,7317.0,0.0,0.0,question_agency,question_agency_line_inverted,0.0,7.0,8.0,16.0,18.0,0.11484867991850657,0.4736493916257308,2
2,8,1,2,93,html-slider-response,93,466777,4609.0,0.0,0.0,question_agency,question_agency_line_inverted,0.0,5.0,6.0,13.0,15.0,-0.34421566321482455,-0.00472260652361161,3
4,8,1,4,136,html-slider-response,136,663631,4477.0,0.0,0.0,question_agency,question_agency_line_inverted,0.0,6.0,5.0,5.0,4.0,0.15673321225543152,0.44066088893015604,4
0,8,1,0,188,html-slider-response,188,904612,5582.0,0.0,0.0,question_agency,question_agency_line_inverted,0.0,5.0,7.0,3.0,3.0,0.4859768033022383,-0.5014644528716017,5
6,8,1,6,31,html-slider-response,31,163283,5847.0,1.0,0.1,question_agency,question_agency_line_inverted,-9.0,6.0,7.0,17.0,15.0,-0.07436815100360002,-0.011746907954550596,1
5,8,1,5,65,html-slider-response,65,336581,5217.0,0.0,0.1,question_agency,question_agency_line_inverted,-10.0,4.0,8.0,20.0,13.0,0.1756062282060936,-0.41597381894838115,2
9,8,1,9,96,html-slider-response,96,485195,9402.0,1.0,0.1,question_agency,question_agency_line_inverted,-9.0,8.0,5.0,13.0,8.0,-0.38068401477170505,0.14711851068849444,3
8,8,1,8,145,html-slider-response,145,707101,4079.0,0.0,0.1,question_agency,question_agency_line_inverted,-10.0,4.0,4.0,3.0,2.0,0.4677463160630134,0.5505610985351561,4
7,8,1,7,176,html-slider-response,176,847561,4129.0,14.0,0.1,question_agency,question_agency_line_inverted,4.0,2.0,2.0,1.0,4.0,0.5416025603090641,0.5669237954472526,5
14,8,1,14,49,html-slider-response,49,260058,7710.0,5.0,0.2,question_agency,question_agency_line_inverted,-15.0,1.0,7.0,11.0,8.0,-0.3024667577737987,0.24578406097684044,1
12,8,1,12,77,html-slider-response,77,395620,5230.0,6.0,0.2,question_agency,question_agency_line_inverted,-14.0,8.0,8.0,9.0,6.0,-0.09562975312864133,0.2614464597472277,2
11,8,1,11,117,html-slider-response,117,580331,5707.0,2.0,0.2,question_agency,question_agency_line_inverted,-18.0,5.0,6.0,14.0,6.0,0.06721341559788765,0.12733337526830785,3
13,8,1,13,124,html-slider-response,124,608696,4184.0,0.0,0.2,question_agency,question_agency_line_inverted,-20.0,5.0,4.0,5.0,7.0,-0.4247388174431085,-0.22737401693834888,4
10,8,1,10,164,html-slider-response,164,790001,6187.0,0.0,0.2,question_agency,question_agency_line_inverted,-20.0,3.0,2.0,4.0,1.0,0.5660256007212222,0.4133688261199279,5
15,8,1,15,43,html-slider-response,43,228930,8593.0,1.0,0.3,question_agency,question_agency_line_inverted,-29.0,7.0,4.0,16.0,10.0,-0.29275617389830544,-0.19976137287576914,1
18,8,1,18,83,html-slider-response,83,425009,5620.0,22.0,0.3,question_agency,question_agency_line_inverted,-8.0,10.0,9.0,9.0,7.0,0.35625172050493703,0.3382074294654191,2
19,8,1,19,90,html-slider-response,90,453135,4070.0,3.0,0.3,question_agency,question_agency_line_inverted,-27.0,7.0,4.0,10.0,5.0,0.12226857831815416,-0.12944797393946328,3
17,8,1,17,127,html-slider-response,127,621681,3948.0,5.0,0.3,question_agency,question_agency_line_inverted,-25.0,4.0,4.0,6.0,4.0,0.17281792131488444,-0.5186144813713075,4
16,8,1,16,167,html-slider-response,167,805392,6354.0,5.0,0.3,question_agency,question_agency_line_inverted,-25.0,4.0,4.0,1.0,4.0,-0.23295762501044046,0.13037450563418249,5
24,8,1,24,37,html-slider-response,37,196233,8938.0,8.0,0.4,question_agency,question_agency_line_inverted,-32.0,8.0,7.0,12.0,6.0,-0.2937525744611223,0.1002852589789789,1
23,8,1,23,74,html-slider-response,74,381361,6191.0,9.0,0.4,question_agency,question_agency_line_inverted,-31.0,6.0,10.0,10.0,11.0,0.17590550594129453,0.4481007104381619,2
22,8,1,22,120,html-slider-response,120,593476,4100.0,15.0,0.4,question_agency,question_agency_line_inverted,-25.0,5.0,3.0,2.0,5.0,0.31766654364422425,0.25014555702992675,3
21,8,1,21,130,html-slider-response,130,635392,4680.0,4.0,0.4,question_agency,question_agency_line_inverted,-36.0,4.0,4.0,6.0,4.0,0.5210011639212142,0.21283583851457652,4
20,8,1,20,161,html-slider-response,161,774788,4788.0,21.0,0.4,question_agency,question_agency_line_inverted,-19.0,3.0,3.0,1.0,2.0,0.01978571591209126,-0.23789969669416322,5
28,8,1,28,22,html-slider-response,22,119437,10721.0,13.0,0.5,question_agency,question_agency_line_inverted,-37.0,6.0,6.0,15.0,9.0,0.16173682637691103,0.08471082258754555,1
29,8,1,29,86,html-slider-response,86,438399,4352.0,20.0,0.5,question_agency,question_agency_line_inverted,-30.0,6.0,4.0,8.0,7.0,-0.02267234754674532,-0.09881422180400079,2
27,8,1,27,111,html-slider-response,111,552270,3868.0,3.0,0.5,question_agency,question_agency_line_inverted,-47.0,5.0,7.0,8.0,5.0,-0.3279712205038587,-0.6277940576904183,3
25,8,1,25,133,html-slider-response,133,650125,5710.0,50.0,0.5,question_agency,question_agency_line_inverted,0.0,2.0,4.0,3.0,1.0,0.44768603830987025,-0.08920385686463089,4
26,8,1,26,179,html-slider-response,179,861057,4413.0,18.0,0.5,question_agency,question_agency_line_inverted,-32.0,3.0,3.0,0.0,3.0,0.0,0.5030036944798502,5
33,8,1,33,52,html-slider-response,52,274296,5205.0,32.0,0.6,question_agency,question_agency_line_inverted,-28.0,9.0,5.0,10.0,8.0,-0.09939612953740137,-0.23775246851611853,1
32,8,1,32,80,html-slider-response,80,410365,5720.0,52.0,0.6,question_agency,question_agency_line_inverted,-8.0,5.0,7.0,8.0,8.0,0.2643806543137948,-0.43349627622578896,2
34,8,1,34,99,html-slider-response,99,499232,5004.0,43.0,0.6,question_agency,question_agency_line_inverted,-17.0,3.0,8.0,4.0,2.0,-0.5065444026409338,0.21328199818799295,3
30,8,1,30,148,html-slider-response,148,719715,3583.0,43.0,0.6,question_agency,question_agency_line_inverted,-17.0,3.0,1.0,2.0,4.0,-0.17887660003748326,-0.003008502005965956,4
31,8,1,31,173,html-slider-response,173,834408,4088.0,60.0,0.6,question_agency,question_agency_line_inverted,0.0,1.0,2.0,3.0,1.0,0.0,-0.4747796311913258,5
38,8,1,38,46,html-slider-response,46,243318,5376.0,41.0,0.7,question_agency,question_agency_line_inverted,-29.0,7.0,10.0,9.0,6.0,-0.10100257988283629,-0.12456969035372634,1
35,8,1,35,62,html-slider-response,62,322344,7980.0,50.0,0.7,question_agency,question_agency_line_inverted,-20.0,6.0,6.0,9.0,9.0,0.08614354945600118,-0.200862367577166,2
37,8,1,37,114,html-slider-response,114,565600,4298.0,53.0,0.7,question_agency,question_agency_line_inverted,-17.0,6.0,9.0,4.0,5.0,-0.04512979611374263,-0.3347048848840254,3
36,8,1,36,142,html-slider-response,142,693982,5695.0,74.0,0.7,question_agency,question_agency_line_inverted,4.0,2.0,3.0,3.0,2.0,-0.09986124880797025,0.12509128740339498,4
39,8,1,39,182,html-slider-response,182,874625,4483.0,73.0,0.7,question_agency,question_agency_line_inverted,3.0,4.0,4.0,3.0,2.0,0.309238662297138,0.08473635663191613,5
43,8,1,43,25,html-slider-response,25,134231,5779.0,45.0,0.8,question_agency,question_agency_line_inverted,-35.0,8.0,9.0,11.0,8.0,-0.20663901128291376,-0.4474019749898389,1
41,8,1,41,68,html-slider-response,68,349805,4205.0,65.0,0.8,question_agency,question_agency_line_inverted,-15.0,5.0,6.0,11.0,12.0,-0.11297501442035643,0.03142180806443224,2
40,8,1,40,102,html-slider-response,102,511745,3486.0,73.0,0.8,question_agency,question_agency_line_inverted,-7.0,6.0,8.0,6.0,6.0,0.15830730038224,0.24613851514199528,3
44,8,1,44,154,html-slider-response,154,745121,3599.0,86.0,0.8,question_agency,question_agency_line_inverted,6.0,4.0,7.0,4.0,1.0,-0.25802201163832833,0.25878037040310103,4
42,8,1,42,158,html-slider-response,158,760936,5343.0,94.0,0.8,question_agency,question_agency_line_inverted,14.0,1.0,3.0,3.0,0.0,0.0,0.0,5
45,8,1,45,28,html-slider-response,28,148425,5170.0,86.0,0.9,question_agency,question_agency_line_inverted,-4.0,5.0,6.0,13.0,10.0,-0.25579006623945144,-0.23246469778324913,1
47,8,1,47,59,html-slider-response,59,305334,4422.0,95.0,0.9,question_agency,question_agency_line_inverted,5.0,7.0,7.0,11.0,10.0,0.2731369719736681,-0.20304498984443065,2
49,8,1,49,105,html-slider-response,105,525299,4508.0,97.0,0.9,question_agency,question_agency_line_inverted,7.0,8.0,8.0,9.0,8.0,0.014857771501599283,0.036973515637942184,3
48,8,1,48,151,html-slider-response,151,732479,3735.0,85.0,0.9,question_agency,question_agency_line_inverted,-5.0,4.0,3.0,4.0,3.0,-0.20041605613277916,0.26298035066840536,4
46,8,1,46,185,html-slider-response,185,889975,6323.0,95.0,0.9,question_agency,question_agency_line_inverted,5.0,6.0,8.0,7.0,6.0,0.4417680078281049,-0.05739746506534719,5
50,8,1,50,40,html-slider-response,40,211324,6073.0,100.0,1.0,question_agency,question_agency_line_inverted,0.0,7.0,11.0,14.0,9.0,-0.42648509403915935,-0.028447349905491484,1
53,8,1,53,56,html-slider-response,56,291889,5287.0,100.0,1.0,question_agency,question_agency_line_inverted,0.0,7.0,9.0,14.0,9.0,-0.3450981651852166,0.3137747807144343,2
52,8,1,52,108,html-slider-response,108,539385,5053.0,100.0,1.0,question_agency,question_agency_line_inverted,0.0,6.0,8.0,7.0,4.0,0.07601924707417766,-0.3557320804338794,3
54,8,1,54,139,html-slider-response,139,679251,6582.0,99.0,1.0,question_agency,question_agency_line_inverted,-1.0,5.0,6.0,4.0,1.0,-0.46063670285492214,-0.378416752261222,4
51,8,1,51,170,html-slider-response,170,821247,6782.0,100.0,1.0,question_agency,question_agency_line_inverted,0.0,2.0,1.0,1.0,2.0,-0.4588314677411232,0.24130758866434202,5
4,9,0,4,49,html-slider-response,49,221200,3164.0,2.0,0.0,question_agency,question_agency_line_inverted,2.0,5.0,5.0,33.0,21.0,-0.26223152500518826,-0.11802435127641026,1
1,9,0,1,83,html-slider-response,83,352859,3061.0,52.0,0.0,question_agency,question_agency_line_inverted,52.0,9.0,8.0,10.0,9.0,-0.36379365594954155,-0.4945450435836126,2
0,9,0,0,90,html-slider-response,90,376798,1950.0,58.0,0.0,question_agency,question_agency_line_inverted,58.0,9.0,4.0,17.0,22.0,0.01107623977523722,-0.2308991235126897,3
2,9,0,2,130,html-slider-response,130,526953,1953.0,58.0,0.0,question_agency,question_agency_line_inverted,58.0,8.0,8.0,25.0,16.0,0.034795592630453,0.16747642494844212,4
3,9,0,3,158,html-slider-response,158,633827,2056.0,28.0,0.0,question_agency,question_agency_line_inverted,28.0,5.0,9.0,16.0,16.0,-0.16133141619021793,-0.05689448204922948,5
5,9,0,5,22,html-slider-response,22,116463,5714.0,40.0,0.1,question_agency,question_agency_line_inverted,30.0,7.0,6.0,13.0,12.0,-0.4358745842642395,-0.344347514511947,1
9,9,0,9,56,html-slider-response,56,247601,4019.0,58.0,0.1,question_agency,question_agency_line_inverted,48.0,6.0,11.0,15.0,25.0,0.010216486167787699,-0.15315614898267937,2
7,9,0,7,99,html-slider-response,99,411348,2032.0,63.0,0.1,question_agency,question_agency_line_inverted,53.0,5.0,6.0,16.0,11.0,-0.436535689685189,-0.22343180710125565,3
8,9,0,8,148,html-slider-response,148,594353,2642.0,24.0,0.1,question_agency,question_agency_line_inverted,14.0,7.0,8.0,17.0,16.0,-0.1977701089508245,-0.04476370422688413,4
6,9,0,6,164,html-slider-response,164,655918,1639.0,58.0,0.1,question_agency,question_agency_line_inverted,48.0,8.0,8.0,24.0,22.0,0.1908402639907867,-0.235620328959208,5
13,9,0,13,25,html-slider-response,25,128540,3075.0,17.0,0.2,question_agency,question_agency_line_inverted,-3.0,6.0,7.0,16.0,20.0,-0.3649095337714733,-0.45976534441985556,1
11,9,0,11,65,html-slider-response,65,282889,2373.0,56.0,0.2,question_agency,question_agency_line_inverted,36.0,9.0,7.0,16.0,11.0,-0.013722004381625252,-0.027178371116523544,2
10,9,0,10,96,html-slider-response,96,400313,2087.0,72.0,0.2,question_agency,question_agency_line_inverted,52.0,7.0,6.0,21.0,13.0,-0.10221013837090275,-0.12629347279231729,3
14,9,0,14,145,html-slider-response,145,582706,1560.0,47.0,0.2,question_agency,question_agency_line_inverted,27.0,5.0,5.0,13.0,6.0,-0.3965672420488246,-0.4878690711849963,4
12,9,0,12,185,html-slider-response,185,736687,3726.0,59.0,0.2,question_agency,question_agency_line_inverted,39.0,7.0,6.0,23.0,14.0,-0.20299996089540367,-0.39645580745510184,5
16,9,0,16,37,html-slider-response,37,174046,2063.0,45.0,0.3,question_agency,question_agency_line_inverted,15.0,5.0,10.0,19.0,19.0,-0.3918434785351452,-0.20124975724820107,1
19,9,0,19,62,html-slider-response,62,271511,3230.0,52.0,0.3,question_agency,question_agency_line_inverted,22.0,7.0,8.0,17.0,13.0,-0.4754376714790882,-0.5218958169890635,2
18,9,0,18,108,html-slider-response,108,444410,2406.0,91.0,0.3,question_agency,question_agency_line_inverted,61.0,8.0,10.0,34.0,13.0,-0.19469814089781315,0.2640855007662491,3
17,9,0,17,139,html-slider-response,139,560279,2203.0,45.0,0.3,question_agency,question_agency_line_inverted,15.0,5.0,4.0,13.0,11.0,-0.18159895598934514,-0.381093137541801,4
15,9,0,15,161,html-slider-response,161,645606,2775.0,35.0,0.3,question_agency,question_agency_line_inverted,5.0,6.0,7.0,22.0,15.0,-0.13494032000527809,-0.2572040707391728,5
23,9,0,23,28,html-slider-response,28,140362,2817.0,40.0,0.4,question_agency,question_agency_line_inverted,0.0,7.0,9.0,15.0,12.0,-0.30110408296569935,-0.13378379418251055,1
22,9,0,22,80,html-slider-response,80,340796,1583.0,64.0,0.4,question_agency,question_agency_line_inverted,24.0,6.0,7.0,10.0,16.0,-0.13727283466201787,-0.0034220706692718837,2
24,9,0,24,93,html-slider-response,93,389385,3582.0,43.0,0.4,question_agency,question_agency_line_inverted,3.0,6.0,6.0,13.0,8.0,-0.438360461278173,-0.3157884606281751,3
21,9,0,21,124,html-slider-response,124,505565,2551.0,89.0,0.4,question_agency,question_agency_line_inverted,49.0,6.0,12.0,25.0,20.0,-0.16903921012032294,0.19622261840133962,4
20,9,0,20,167,html-slider-response,167,667067,2373.0,50.0,0.4,question_agency,question_agency_line_inverted,10.0,7.0,4.0,28.0,18.0,-0.32228663547690367,-0.6361255905944369,5
28,9,0,28,31,html-slider-response,31,151350,1983.0,73.0,0.5,question_agency,question_agency_line_inverted,23.0,7.0,8.0,22.0,21.0,-0.4626755104276614,-0.47760611284717963,1
29,9,0,29,59,html-slider-response,59,259279,2674.0,39.0,0.5,question_agency,question_agency_line_inverted,-11.0,7.0,7.0,20.0,12.0,-0.254558245886336,-0.04123066352066172,2
27,9,0,27,105,html-slider-response,105,433772,2178.0,99.0,0.5,question_agency,question_agency_line_inverted,49.0,6.0,6.0,25.0,15.0,-0.20174892760926416,-0.36369625070763195,3
25,9,0,25,142,html-slider-response,142,572142,2860.0,57.0,0.5,question_agency,question_agency_line_inverted,7.0,9.0,5.0,23.0,14.0,-0.198699075740793,-0.4724799178871121,4
26,9,0,26,182,html-slider-response,182,723957,1725.0,80.0,0.5,question_agency,question_agency_line_inverted,30.0,9.0,6.0,40.0,23.0,-0.16387349941808171,-0.35821083453616875,5
32,9,0,32,40,html-slider-response,40,185416,2368.0,66.0,0.6,question_agency,question_agency_line_inverted,6.0,6.0,9.0,48.0,26.0,-0.12443679258720515,-0.19144586838435457,1
30,9,0,30,86,html-slider-response,86,363983,2121.0,100.0,0.6,question_agency,question_agency_line_inverted,40.0,7.0,12.0,24.0,20.0,-0.12951869239316244,-0.11618471489271247,2
34,9,0,34,102,html-slider-response,102,422637,2286.0,93.0,0.6,question_agency,question_agency_line_inverted,33.0,6.0,5.0,54.0,22.0,-0.12514952710314006,-0.27154886414809887,3
33,9,0,33,154,html-slider-response,154,618440,3705.0,100.0,0.6,question_agency,question_agency_line_inverted,40.0,7.0,11.0,33.0,17.0,-0.07888777595364363,-0.037568612743570214,4
31,9,0,31,179,html-slider-response,179,713228,3153.0,82.0,0.6,question_agency,question_agency_line_inverted,22.0,5.0,7.0,22.0,15.0,-0.5265609737932939,-0.40712449741827345,5
38,9,0,38,43,html-slider-response,43,197460,3040.0,100.0,0.7,question_agency,question_agency_line_inverted,30.0,7.0,9.0,34.0,32.0,0.17976224034068783,-0.04374118731006046,1
39,9,0,39,71,html-slider-response,71,307422,2885.0,100.0,0.7,question_agency,question_agency_line_inverted,30.0,8.0,5.0,20.0,11.0,-0.03124238512558075,-0.048220273225012586,2
35,9,0,35,111,html-slider-response,111,456452,3038.0,100.0,0.7,question_agency,question_agency_line_inverted,30.0,8.0,10.0,51.0,29.0,0.019492960374799376,-0.12120440482076457,3
37,9,0,37,127,html-slider-response,127,516226,2103.0,95.0,0.7,question_agency,question_agency_line_inverted,25.0,8.0,8.0,35.0,24.0,-0.3146355701906229,-0.10686485409285322,4
36,9,0,36,173,html-slider-response,173,689826,2301.0,100.0,0.7,question_agency,question_agency_line_inverted,30.0,6.0,5.0,48.0,26.0,-0.16393932504673403,-0.3704708778052361,5
41,9,0,41,52,html-slider-response,52,232380,2176.0,100.0,0.8,question_agency,question_agency_line_inverted,20.0,9.0,6.0,42.0,18.0,0.33090264162880584,0.044696777752878204,1
44,9,0,44,68,html-slider-response,68,295535,3641.0,100.0,0.8,question_agency,question_agency_line_inverted,20.0,8.0,8.0,24.0,16.0,-0.2966326774767737,0.16551316299900848,2
43,9,0,43,120,html-slider-response,120,490658,2280.0,90.0,0.8,question_agency,question_agency_line_inverted,10.0,7.0,6.0,17.0,16.0,0.06970248649442215,0.1488120886177449,3
42,9,0,42,133,html-slider-response,133,537555,1878.0,100.0,0.8,question_agency,question_agency_line_inverted,20.0,9.0,8.0,26.0,16.0,-0.4941702449461627,-0.18951325292153312,4
40,9,0,40,170,html-slider-response,170,678521,2452.0,100.0,0.8,question_agency,question_agency_line_inverted,20.0,7.0,8.0,35.0,18.0,-0.10797197779298727,0.08560390470596643,5
47,9,0,47,34,html-slider-response,34,162977,2625.0,100.0,0.9,question_agency,question_agency_line_inverted,10.0,6.0,6.0,24.0,20.0,-0.11216985879344837,-0.09686512213708208,1
46,9,0,46,74,html-slider-response,74,318905,2478.0,100.0,0.9,question_agency,question_agency_line_inverted,10.0,7.0,7.0,25.0,16.0,-0.07393087019575632,-0.12006483578987372,2
49,9,0,49,114,html-slider-response,114,467885,2427.0,100.0,0.9,question_agency,question_agency_line_inverted,10.0,5.0,8.0,60.0,23.0,0.06408355152918867,-0.3528220200529699,3
45,9,0,45,151,html-slider-response,151,606222,2863.0,100.0,0.9,question_agency,question_agency_line_inverted,10.0,7.0,4.0,27.0,18.0,-0.05669713761397451,-0.11382299995564894,4
48,9,0,48,176,html-slider-response,176,701074,2243.0,100.0,0.9,question_agency,question_agency_line_inverted,10.0,9.0,6.0,38.0,30.0,-0.007464347353513422,0.16402939187387328,5
51,9,0,51,46,html-slider-response,46,209034,2570.0,100.0,1.0,question_agency,question_agency_line_inverted,0.0,8.0,6.0,33.0,22.0,0.033629007567228905,0.07562455328960492,1
52,9,0,52,77,html-slider-response,77,330211,2303.0,100.0,1.0,question_agency,question_agency_line_inverted,0.0,10.0,6.0,31.0,21.0,-0.14534858971881054,-0.0052942793907272126,2
53,9,0,53,117,html-slider-response,117,479376,2487.0,100.0,1.0,question_agency,question_agency_line_inverted,0.0,11.0,11.0,23.0,24.0,-0.31942743091004466,-0.04438088014841985,3
50,9,0,50,136,html-slider-response,136,549287,2730.0,100.0,1.0,question_agency,question_agency_line_inverted,0.0,6.0,4.0,26.0,22.0,0.26133083295120035,0.13706779920850576,4
54,9,0,54,188,html-slider-response,188,747529,1840.0,100.0,1.0,question_agency,question_agency_line_inverted,0.0,5.0,5.0,64.0,23.0,0.04527149494609959,-0.06244020277507517,5
0,10,1,0,25,html-slider-response,25,98447,3114.0,0.0,0.0,question_agency,question_agency_line_inverted,0.0,8.0,7.0,8.0,8.0,0.11057424957940551,-0.27662414664599166,1
4,10,1,4,56,html-slider-response,56,227130,3153.0,0.0,0.0,question_agency,question_agency_line_inverted,0.0,7.0,4.0,6.0,7.0,-0.2996368228302657,0.1180012419816649,2
1,10,1,1,93,html-slider-response,93,378747,1810.0,0.0,0.0,question_agency,question_agency_line_inverted,0.0,6.0,9.0,5.0,4.0,-0.23051829261679055,-0.09102435503002194,3
3,10,1,3,145,html-slider-response,145,580355,3066.0,0.0,0.0,question_agency,question_agency_line_inverted,0.0,4.0,8.0,6.0,10.0,-0.2956652726181859,-0.257996962538353,4
2,10,1,2,164,html-slider-response,164,660957,4495.0,0.0,0.0,question_agency,question_agency_line_inverted,0.0,10.0,13.0,10.0,6.0,0.2534887061912149,0.23187879168642872,5
7,10,1,7,31,html-slider-response,31,122697,2631.0,0.0,0.1,question_agency,question_agency_line_inverted,-10.0,5.0,6.0,5.0,10.0,-0.40331691090371796,-0.28459906365202003,1
9,10,1,9,86,html-slider-response,86,349629,1876.0,2.0,0.1,question_agency,question_agency_line_inverted,-8.0,8.0,10.0,10.0,7.0,-0.21386438502815822,0.013282834046366675,2
5,10,1,5,102,html-slider-response,102,413606,1802.0,0.0,0.1,question_agency,question_agency_line_inverted,-10.0,6.0,8.0,2.0,6.0,-0.10408990447933857,-0.43368760504222825,3
6,10,1,6,136,html-slider-response,136,543124,2386.0,0.0,0.1,question_agency,question_agency_line_inverted,-10.0,8.0,7.0,2.0,2.0,-0.16136666488430407,0.02464620489167538,4
8,10,1,8,167,html-slider-response,167,672121,2154.0,0.0,0.1,question_agency,question_agency_line_inverted,-10.0,5.0,7.0,15.0,4.0,-0.0385937015336756,0.3130469728061066,5
11,10,1,11,49,html-slider-response,49,198477,3177.0,10.0,0.2,question_agency,question_agency_line_inverted,-10.0,6.0,5.0,12.0,9.0,-0.018503702739232658,-0.23037831305407713,1
14,10,1,14,80,html-slider-response,80,327030,4053.0,2.0,0.2,question_agency,question_agency_line_inverted,-18.0,8.0,6.0,10.0,2.0,-0.17777105665702445,0.2702726353521149,2
10,10,1,10,108,html-slider-response,108,437296,1792.0,0.0,0.2,question_agency,question_agency_line_inverted,-20.0,6.0,8.0,4.0,6.0,-0.20764929607858046,0.28425285377560905,3
12,10,1,12,154,html-slider-response,154,615304,2298.0,0.0,0.2,question_agency,question_agency_line_inverted,-20.0,10.0,9.0,8.0,13.0,-0.15966054293681722,-0.00034480476911778984,4
13,10,1,13,179,html-slider-response,179,719377,2103.0,0.0,0.2,question_agency,question_agency_line_inverted,-20.0,7.0,8.0,10.0,6.0,-0.4129035419869917,0.16792190089188586,5
19,10,1,19,52,html-slider-response,52,212470,4985.0,19.0,0.3,question_agency,question_agency_line_inverted,-11.0,8.0,9.0,5.0,8.0,-0.01755917227317744,-0.25785742846841236,1
17,10,1,17,65,html-slider-response,65,266961,1909.0,2.0,0.3,question_agency,question_agency_line_inverted,-28.0,5.0,8.0,5.0,2.0,-0.5157700967541619,-0.18835174179364123,2
15,10,1,15,96,html-slider-response,96,390447,2696.0,0.0,0.3,question_agency,question_agency_line_inverted,-30.0,7.0,5.0,6.0,4.0,-0.009873726975372974,-0.025893262663505855,3
16,10,1,16,151,html-slider-response,151,603997,2468.0,12.0,0.3,question_agency,question_agency_line_inverted,-18.0,7.0,9.0,8.0,10.0,-0.08308759328920953,-0.20629562767196538,4
18,10,1,18,161,html-slider-response,161,647458,2882.0,30.0,0.3,question_agency,question_agency_line_inverted,0.0,7.0,7.0,11.0,11.0,-0.08121742660813588,-0.053727843588641064,5
20,10,1,20,22,html-slider-response,22,86323,6074.0,21.0,0.4,question_agency,question_agency_line_inverted,-19.0,7.0,8.0,9.0,10.0,-0.2464952734533849,0.17648945287686868,1
24,10,1,24,59,html-slider-response,59,239870,3736.0,9.0,0.4,question_agency,question_agency_line_inverted,-31.0,9.0,6.0,5.0,7.0,0.24767654185340185,-0.41825638094516027,2
23,10,1,23,120,html-slider-response,120,484260,2011.0,7.0,0.4,question_agency,question_agency_line_inverted,-33.0,5.0,8.0,9.0,7.0,-0.2908873473297646,-0.26860965565074774,3
21,10,1,21,142,html-slider-response,142,568279,2375.0,18.0,0.4,question_agency,question_agency_line_inverted,-22.0,9.0,6.0,8.0,10.0,0.09844785675669684,-0.2617137508868014,4
22,10,1,22,170,html-slider-response,170,684047,2923.0,37.0,0.4,question_agency,question_agency_line_inverted,-3.0,6.0,6.0,15.0,18.0,-0.20321083411467955,0.0043539616389927,5
28,10,1,28,40,html-slider-response,40,163248,2531.0,44.0,0.5,question_agency,question_agency_line_inverted,-6.0,8.0,7.0,14.0,9.0,0.1892612932915095,-0.1471838758102974,1
29,10,1,29,62,html-slider-response,62,256046,7172.0,56.0,0.5,question_agency,question_agency_line_inverted,6.0,9.0,7.0,9.0,8.0,0.0662955747083665,0.15017110155037403,2
26,10,1,26,105,html-slider-response,105,426496,3882.0,54.0,0.5,question_agency,question_agency_line_inverted,4.0,9.0,9.0,6.0,10.0,0.0451889313045307,0.2202846892720645,3
25,10,1,25,124,html-slider-response,124,496883,2079.0,34.0,0.5,question_agency,question_agency_line_inverted,-16.0,7.0,7.0,10.0,8.0,-0.1695091465825499,-0.1930234062050239,4
27,10,1,27,188,html-slider-response,188,756526,3175.0,63.0,0.5,question_agency,question_agency_line_inverted,13.0,7.0,7.0,12.0,5.0,-0.17444766584286195,-0.13517692235973772,5
30,10,1,30,34,html-slider-response,34,140110,8410.0,67.0,0.6,question_agency,question_agency_line_inverted,7.0,7.0,7.0,11.0,8.0,-0.07063971752522027,-0.041195926274446404,1
34,10,1,34,77,html-slider-response,77,313970,3134.0,65.0,0.6,question_agency,question_agency_line_inverted,5.0,9.0,9.0,6.0,12.0,-0.19850496489564912,0.058095004567000987,2
31,10,1,31,99,html-slider-response,99,402797,3344.0,55.0,0.6,question_agency,question_agency_line_inverted,-5.0,8.0,8.0,2.0,6.0,-0.40451688747756775,-0.48334383784537843,3
32,10,1,32,139,html-slider-response,139,556896,4765.0,56.0,0.6,question_agency,question_agency_line_inverted,-4.0,8.0,5.0,2.0,11.0,-0.4271651902601545,-0.13160903178866207,4
33,10,1,33,185,html-slider-response,185,744344,4202.0,73.0,0.6,question_agency,question_agency_line_inverted,13.0,9.0,9.0,9.0,14.0,-0.1772727403771499,0.2659707333144126,5
36,10,1,36,28,html-slider-response,28,111057,3608.0,67.0,0.7,question_agency,question_agency_line_inverted,-3.0,7.0,8.0,10.0,12.0,-0.08220825709514773,-0.060191748506619305,1
35,10,1,35,74,html-slider-response,74,301828,1892.0,74.0,0.7,question_agency,question_agency_line_inverted,4.0,8.0,7.0,6.0,9.0,0.3376622763153751,-0.49523413993056165,2
39,10,1,39,114,html-slider-response,114,462158,2705.0,70.0,0.7,question_agency,question_agency_line_inverted,0.0,7.0,6.0,4.0,18.0,-0.009874409068937917,-0.07602565538664907,3
38,10,1,38,148,html-slider-response,148,592523,3153.0,76.0,0.7,question_agency,question_agency_line_inverted,6.0,6.0,6.0,5.0,12.0,-0.3217226080112649,0.4665196402950251,4
37,10,1,37,173,html-slider-response,173,696799,3742.0,60.0,0.7,question_agency,question_agency_line_inverted,-10.0,6.0,6.0,9.0,18.0,0.06778062242655114,-0.24040827350278077,5
44,10,1,44,43,html-slider-response,43,175529,3278.0,87.0,0.8,question_agency,question_agency_line_inverted,7.0,7.0,8.0,8.0,12.0,-0.13959863405542552,-0.25199839728174733,1
42,10,1,42,71,html-slider-response,71,290931,4246.0,85.0,0.8,question_agency,question_agency_line_inverted,5.0,7.0,6.0,7.0,5.0,-0.15625936536357304,-0.01577652793098583,2
43,10,1,43,111,html-slider-response,111,450450,4146.0,100.0,0.8,question_agency,question_agency_line_inverted,20.0,6.0,4.0,12.0,14.0,-0.5523937009132892,-0.21392623834227426,3
40,10,1,40,130,html-slider-response,130,521070,2034.0,93.0,0.8,question_agency,question_agency_line_inverted,13.0,9.0,10.0,5.0,4.0,-0.13833600484184705,-0.08725072336575652,4
41,10,1,41,182,html-slider-response,182,731140,2749.0,78.0,0.8,question_agency,question_agency_line_inverted,-2.0,5.0,8.0,10.0,15.0,0.6079556616407287,-0.06653656532932856,5
49,10,1,49,46,html-slider-response,46,186299,1765.0,95.0,0.9,question_agency,question_agency_line_inverted,5.0,7.0,7.0,10.0,10.0,-0.06531563152476845,0.5798287722024739,1
46,10,1,46,68,html-slider-response,68,277673,1705.0,96.0,0.9,question_agency,question_agency_line_inverted,6.0,9.0,7.0,6.0,8.0,-0.17063307033352795,-0.1210676899282745,2
47,10,1,47,117,html-slider-response,117,473244,2125.0,97.0,0.9,question_agency,question_agency_line_inverted,7.0,6.0,7.0,10.0,14.0,0.55407826252597,0.13369609032847968,3
48,10,1,48,133,html-slider-response,133,531726,1639.0,95.0,0.9,question_agency,question_agency_line_inverted,5.0,5.0,8.0,5.0,6.0,0.011510824150174702,-0.017669078323377378,4
45,10,1,45,158,html-slider-response,158,635574,2904.0,97.0,0.9,question_agency,question_agency_line_inverted,7.0,6.0,7.0,9.0,14.0,0.42215535771823104,-0.1805687685895575,5
50,10,1,50,37,html-slider-response,37,151702,2586.0,100.0,1.0,question_agency,question_agency_line_inverted,0.0,4.0,7.0,10.0,10.0,-0.22021547550579762,0.18102253361268303,1
53,10,1,53,83,html-slider-response,83,338748,2714.0,100.0,1.0,question_agency,question_agency_line_inverted,0.0,7.0,6.0,10.0,10.0,-0.1881280865624931,-0.18259311665638275,2
51,10,1,51,90,html-slider-response,90,367933,2581.0,100.0,1.0,question_agency,question_agency_line_inverted,0.0,5.0,6.0,10.0,4.0,-0.023809044564273966,-0.1925204046397271,3
54,10,1,54,127,html-slider-response,127,510027,4139.0,100.0,1.0,question_agency,question_agency_line_inverted,0.0,8.0,10.0,6.0,8.0,-0.26006580023795894,0.13590811654776072,4
52,10,1,52,176,html-slider-response,176,708265,2458.0,100.0,1.0,question_agency,question_agency_line_inverted,0.0,6.0,9.0,6.0,6.0,0.14336456966702377,0.12409859888767388,5
2,11,1,2,43,html-slider-response,43,192493,2125.0,0.0,0.0,question_agency,question_agency_line_inverted,0.0,8.0,5.0,39.0,28.0,-0.05107754362959045,-0.45918957550634737,1
4,11,1,4,71,html-slider-response,71,312812,2344.0,3.0,0.0,question_agency,question_agency_line_inverted,3.0,6.0,6.0,12.0,9.0,-0.32056342628330214,-0.4671812235292095,2
0,11,1,0,117,html-slider-response,117,494105,1846.0,0.0,0.0,question_agency,question_agency_line_inverted,0.0,9.0,7.0,21.0,11.0,-0.3524369193201624,-0.45669384576374145,3
3,11,1,3,148,html-slider-response,148,620187,2697.0,2.0,0.0,question_agency,question_agency_line_inverted,2.0,4.0,5.0,21.0,20.0,-0.6127261922553522,-0.4143438863451641,4
1,11,1,1,176,html-slider-response,176,723535,2067.0,2.0,0.0,question_agency,question_agency_line_inverted,2.0,6.0,5.0,29.0,22.0,0.047910623745587966,-0.39915990263211876,5
6,11,1,6,34,html-slider-response,34,155828,4282.0,0.0,0.1,question_agency,question_agency_line_inverted,-10.0,5.0,7.0,11.0,11.0,-0.6362493414744351,-0.3478405075699531,1
8,11,1,8,77,html-slider-response,77,334866,2416.0,1.0,0.1,question_agency,question_agency_line_inverted,-9.0,7.0,9.0,15.0,13.0,-0.05568499363480678,-0.0912604251695904,2
5,11,1,5,111,html-slider-response,111,471028,1701.0,4.0,0.1,question_agency,question_agency_line_inverted,-6.0,9.0,9.0,22.0,13.0,-0.20643562548876296,-0.17072322247558303,3
7,11,1,7,142,html-slider-response,142,597225,2188.0,1.0,0.1,question_agency,question_agency_line_inverted,-9.0,8.0,8.0,25.0,27.0,-0.22490979801214417,-0.20861423225683293,4
9,11,1,9,161,html-slider-response,161,668531,3723.0,11.0,0.1,question_agency,question_agency_line_inverted,1.0,8.0,7.0,13.0,13.0,-0.40582844631198145,-0.30400119852843505,5
10,11,1,10,22,html-slider-response,22,106201,3605.0,4.0,0.2,question_agency,question_agency_line_inverted,-16.0,9.0,6.0,14.0,13.0,-0.24540620561154425,-0.16109633014702857,1
13,11,1,13,74,html-slider-response,74,323443,2190.0,4.0,0.2,question_agency,question_agency_line_inverted,-16.0,6.0,8.0,20.0,15.0,-0.5975669066947542,-0.4346567353367843,2
11,11,1,11,114,html-slider-response,114,483254,3224.0,6.0,0.2,question_agency,question_agency_line_inverted,-14.0,8.0,10.0,14.0,16.0,-0.0008355489746019491,-0.119902943269694,3
12,11,1,12,151,html-slider-response,151,631532,2339.0,2.0,0.2,question_agency,question_agency_line_inverted,-18.0,7.0,8.0,13.0,12.0,-0.5452627332842819,-0.453033383313461,4
14,11,1,14,173,html-slider-response,173,712465,2241.0,9.0,0.2,question_agency,question_agency_line_inverted,-11.0,5.0,8.0,19.0,13.0,-0.34570269649149127,-0.3469224982720525,5
16,11,1,16,31,html-slider-response,31,142540,2671.0,3.0,0.3,question_agency,question_agency_line_inverted,-27.0,5.0,6.0,14.0,19.0,-0.6748643743860452,-0.3363117680878138,1
19,11,1,19,59,html-slider-response,59,266018,5126.0,7.0,0.3,question_agency,question_agency_line_inverted,-23.0,8.0,9.0,16.0,11.0,-0.19348682234585557,-0.29108900202911536,2
17,11,1,17,108,html-slider-response,108,460954,3579.0,12.0,0.3,question_agency,question_agency_line_inverted,-18.0,7.0,4.0,12.0,19.0,-0.45665265220582474,-0.1260274549015795,3
15,11,1,15,136,html-slider-response,136,575074,2395.0,5.0,0.3,question_agency,question_agency_line_inverted,-25.0,9.0,6.0,24.0,13.0,-0.1622065218616999,-0.5757122386948609,4
18,11,1,18,170,html-slider-response,170,701221,2159.0,10.0,0.3,question_agency,question_agency_line_inverted,-20.0,10.0,7.0,22.0,17.0,-0.3861547715661082,-0.414072033766042,5
20,11,1,20,25,html-slider-response,25,118251,3047.0,6.0,0.4,question_agency,question_agency_line_inverted,-34.0,8.0,7.0,14.0,11.0,-0.20265967161051315,-0.35790326192831345,1
22,11,1,22,65,html-slider-response,65,289762,2263.0,8.0,0.4,question_agency,question_agency_line_inverted,-32.0,9.0,8.0,22.0,19.0,-0.11678250325501353,-0.11195277179901487,2
21,11,1,21,93,html-slider-response,93,400127,2767.0,19.0,0.4,question_agency,question_agency_line_inverted,-21.0,7.0,7.0,16.0,17.0,-0.4985240009985547,-0.20221076600555382,3
23,11,1,23,154,html-slider-response,154,643109,2574.0,27.0,0.4,question_agency,question_agency_line_inverted,-13.0,6.0,5.0,25.0,11.0,0.11400878750930826,-0.3208447967612493,4
24,11,1,24,167,html-slider-response,167,690056,1683.0,10.0,0.4,question_agency,question_agency_line_inverted,-30.0,8.0,9.0,13.0,19.0,-0.3814399848849616,-0.07379596138052644,5
27,11,1,27,37,html-slider-response,37,170280,5449.0,25.0,0.5,question_agency,question_agency_line_inverted,-25.0,6.0,8.0,18.0,15.0,-0.3785701833996099,-0.21513886222111087,1
25,11,1,25,83,html-slider-response,83,357426,1870.0,43.0,0.5,question_agency,question_agency_line_inverted,-7.0,7.0,6.0,26.0,19.0,-0.06084071175088933,-0.2807605974106512,2
26,11,1,26,99,html-slider-response,99,423611,2198.0,36.0,0.5,question_agency,question_agency_line_inverted,-14.0,9.0,6.0,25.0,15.0,-0.05870217395029649,-0.5332626428467553,3
28,11,1,28,127,html-slider-response,127,527982,1856.0,11.0,0.5,question_agency,question_agency_line_inverted,-39.0,7.0,5.0,21.0,21.0,-0.1407314498131054,-0.2520431082146074,4
29,11,1,29,179,html-slider-response,179,736822,4283.0,41.0,0.5,question_agency,question_agency_line_inverted,-9.0,9.0,7.0,19.0,20.0,-0.18816506928253196,0.13377134195521442,5
34,11,1,34,46,html-slider-response,46,203972,2475.0,52.0,0.6,question_agency,question_agency_line_inverted,-8.0,6.0,6.0,21.0,17.0,-0.24534517238806303,-0.42722976618919,1
33,11,1,33,86,html-slider-response,86,370195,3762.0,66.0,0.6,question_agency,question_agency_line_inverted,6.0,6.0,8.0,25.0,22.0,-0.24325243912239608,-0.2522358016401888,2
31,11,1,31,120,html-slider-response,120,505492,2383.0,53.0,0.6,question_agency,question_agency_line_inverted,-7.0,8.0,7.0,21.0,22.0,-0.35027151557170066,-0.2923552900277787,3
32,11,1,32,139,html-slider-response,139,586034,1957.0,88.0,0.6,question_agency,question_agency_line_inverted,28.0,8.0,5.0,30.0,13.0,0.1741872173978286,0.03219479871393224,4
