,SubNum,Include,level_0,index,trial_type,trial_index,time_elapsed,rt,response,control_level,task_id,screen_id,difference,Key_Release_sim_x,Key_Release_sim_y,Key_Release_p1_x,Key_Release_p1_y,Correlation_x,Correlation_y,block
3,1,0,3,46,html-slider-response,46,256016,6542.0,11.0,0.0,question_agency,question_agency_line,11.0,5.0,6.0,0.0,0.0,0.0,0.0,1
4,1,0,4,65,html-slider-response,65,359588,4938.0,66.0,0.0,question_agency,question_agency_line,66.0,7.0,7.0,0.0,0.0,0.0,0.0,2
0,1,0,0,105,html-slider-response,105,548011,2884.0,77.0,0.0,question_agency,question_agency_line,77.0,8.0,6.0,0.0,0.0,0.0,0.0,3
2,1,0,2,142,html-slider-response,142,966352,6501.0,31.0,0.0,question_agency,question_agency_line,31.0,9.0,8.0,0.0,0.0,0.0,0.0,4
1,1,0,1,182,html-slider-response,182,1525894,6670.0,49.0,0.0,question_agency,question_agency_line,49.0,5.0,8.0,0.0,0.0,0.0,0.0,5
8,1,0,8,49,html-slider-response,49,268181,3146.0,18.0,0.1,question_agency,question_agency_line,8.0,6.0,6.0,0.0,0.0,0.0,0.0,1
9,1,0,9,59,html-slider-response,59,331473,2655.0,70.0,0.1,question_agency,question_agency_line,60.0,7.0,5.0,0.0,0.0,0.0,0.0,2
7,1,0,7,114,html-slider-response,114,587676,6818.0,26.0,0.1,question_agency,question_agency_line,16.0,8.0,2.0,0.0,0.0,0.0,0.0,3
6,1,0,6,145,html-slider-response,145,982976,7613.0,50.0,0.1,question_agency,question_agency_line,40.0,12.0,9.0,0.0,0.0,0.0,0.0,4
5,1,0,5,167,html-slider-response,167,1424119,6875.0,50.0,0.1,question_agency,question_agency_line,40.0,7.0,8.0,0.0,0.0,0.0,0.0,5
14,1,0,14,40,html-slider-response,40,205744,5822.0,86.0,0.2,question_agency,question_agency_line,66.0,8.0,8.0,0.0,0.0,0.0,0.0,1
12,1,0,12,74,html-slider-response,74,400807,7527.0,73.0,0.2,question_agency,question_agency_line,53.0,4.0,8.0,0.0,0.0,0.0,0.0,2
11,1,0,11,111,html-slider-response,111,571849,2668.0,70.0,0.2,question_agency,question_agency_line,50.0,6.0,7.0,0.0,0.0,0.0,0.0,3
10,1,0,10,139,html-slider-response,139,950840,22304.0,13.0,0.2,question_agency,question_agency_line,-7.0,6.0,6.0,0.0,0.0,0.0,0.0,4
13,1,0,13,188,html-slider-response,188,1557659,10417.0,58.0,0.2,question_agency,question_agency_line,38.0,9.0,8.0,0.0,0.0,0.0,0.0,5
16,1,0,16,52,html-slider-response,52,279876,2684.0,61.0,0.3,question_agency,question_agency_line,31.0,6.0,5.0,0.0,0.0,0.0,0.0,1
18,1,0,18,83,html-slider-response,83,443674,4575.0,69.0,0.3,question_agency,question_agency_line,39.0,7.0,8.0,0.0,0.0,0.0,0.0,2
19,1,0,19,99,html-slider-response,99,524066,7775.0,72.0,0.3,question_agency,question_agency_line,42.0,6.0,7.0,0.0,0.0,0.0,0.0,3
17,1,0,17,124,html-slider-response,124,750552,3923.0,63.0,0.3,question_agency,question_agency_line,33.0,5.0,8.0,0.0,0.0,0.0,0.0,4
15,1,0,15,161,html-slider-response,161,1379356,2959.0,63.0,0.3,question_agency,question_agency_line,33.0,9.0,6.0,0.0,0.0,0.0,0.0,5
21,1,0,21,31,html-slider-response,31,166113,28798.0,44.0,0.4,question_agency,question_agency_line,4.0,6.0,9.0,0.0,0.0,0.0,0.0,1
20,1,0,20,56,html-slider-response,56,319808,2849.0,77.0,0.4,question_agency,question_agency_line,37.0,4.0,10.0,0.0,0.0,0.0,0.0,2
23,1,0,23,96,html-slider-response,96,507284,8427.0,75.0,0.4,question_agency,question_agency_line,35.0,9.0,6.0,0.0,0.0,0.0,0.0,3
24,1,0,24,127,html-slider-response,127,776525,16963.0,75.0,0.4,question_agency,question_agency_line,35.0,8.0,10.0,0.0,0.0,0.0,0.0,4
22,1,0,22,185,html-slider-response,185,1538233,3327.0,25.0,0.4,question_agency,question_agency_line,-15.0,8.0,8.0,0.0,0.0,0.0,0.0,5
26,1,0,26,25,html-slider-response,25,111904,10462.0,7.0,0.5,question_agency,question_agency_line,-43.0,4.0,5.0,0.0,0.0,0.0,0.0,1
27,1,0,27,68,html-slider-response,68,371437,2837.0,66.0,0.5,question_agency,question_agency_line,16.0,6.0,8.0,0.0,0.0,0.0,0.0,2
25,1,0,25,102,html-slider-response,102,536118,3042.0,32.0,0.5,question_agency,question_agency_line,-18.0,6.0,6.0,0.0,0.0,0.0,0.0,3
29,1,0,29,148,html-slider-response,148,1013001,21016.0,36.0,0.5,question_agency,question_agency_line,-14.0,5.0,5.0,0.0,0.0,0.0,0.0,4
28,1,0,28,158,html-slider-response,158,1367378,96255.0,57.0,0.5,question_agency,question_agency_line,7.0,6.0,3.0,0.0,0.0,0.0,0.0,5
30,1,0,30,34,html-slider-response,34,177979,2857.0,61.0,0.6,question_agency,question_agency_line,1.0,6.0,7.0,0.0,0.0,0.0,0.0,1
31,1,0,31,86,html-slider-response,86,456853,4172.0,45.0,0.6,question_agency,question_agency_line,-15.0,8.0,7.0,0.0,0.0,0.0,0.0,2
33,1,0,33,117,html-slider-response,117,601973,5287.0,42.0,0.6,question_agency,question_agency_line,-18.0,5.0,6.0,0.0,0.0,0.0,0.0,3
34,1,0,34,151,html-slider-response,151,1037802,15788.0,52.0,0.6,question_agency,question_agency_line,-8.0,7.0,4.0,0.0,0.0,0.0,0.0,4
32,1,0,32,173,html-slider-response,173,1465755,19125.0,46.0,0.6,question_agency,question_agency_line,-14.0,10.0,8.0,0.0,0.0,0.0,0.0,5
36,1,0,36,28,html-slider-response,28,128307,7393.0,16.0,0.7,question_agency,question_agency_line,-54.0,8.0,6.0,0.0,0.0,0.0,0.0,1
39,1,0,39,80,html-slider-response,80,430089,5325.0,72.0,0.7,question_agency,question_agency_line,2.0,9.0,8.0,0.0,0.0,0.0,0.0,2
37,1,0,37,90,html-slider-response,90,475566,4097.0,37.0,0.7,question_agency,question_agency_line,-33.0,8.0,3.0,0.0,0.0,0.0,0.0,3
38,1,0,38,133,html-slider-response,133,800208,2229.0,68.0,0.7,question_agency,question_agency_line,-2.0,6.0,2.0,0.0,0.0,0.0,0.0,4
35,1,0,35,170,html-slider-response,170,1437619,4490.0,49.0,0.7,question_agency,question_agency_line,-21.0,8.0,6.0,0.0,0.0,0.0,0.0,5
40,1,0,40,37,html-slider-response,37,190912,3923.0,26.0,0.8,question_agency,question_agency_line,-54.0,8.0,8.0,0.0,0.0,0.0,0.0,1
44,1,0,44,77,html-slider-response,77,415757,5940.0,71.0,0.8,question_agency,question_agency_line,-9.0,7.0,8.0,0.0,0.0,0.0,0.0,2
41,1,0,41,93,html-slider-response,93,489849,5274.0,58.0,0.8,question_agency,question_agency_line,-22.0,2.0,7.0,0.0,0.0,0.0,0.0,3
42,1,0,42,154,html-slider-response,154,1049586,2773.0,10.0,0.8,question_agency,question_agency_line,-70.0,6.0,8.0,0.0,0.0,0.0,0.0,4
43,1,0,43,176,html-slider-response,176,1497298,22532.0,50.0,0.8,question_agency,question_agency_line,-30.0,7.0,7.0,0.0,0.0,0.0,0.0,5
47,1,0,47,22,html-slider-response,22,92433,10326.0,47.0,0.9,question_agency,question_agency_line,-43.0,6.0,4.0,0.0,0.0,0.0,0.0,1
48,1,0,48,62,html-slider-response,62,345638,5155.0,66.0,0.9,question_agency,question_agency_line,-24.0,5.0,4.0,0.0,0.0,0.0,0.0,2
45,1,0,45,108,html-slider-response,108,560171,3150.0,38.0,0.9,question_agency,question_agency_line,-52.0,6.0,7.0,0.0,0.0,0.0,0.0,3
49,1,0,49,130,html-slider-response,130,788967,3430.0,54.0,0.9,question_agency,question_agency_line,-36.0,8.0,6.0,0.0,0.0,0.0,0.0,4
46,1,0,46,179,html-slider-response,179,1510211,3901.0,13.0,0.9,question_agency,question_agency_line,-77.0,6.0,7.0,0.0,0.0,0.0,0.0,5
51,1,0,51,43,html-slider-response,43,240465,25711.0,23.0,1.0,question_agency,question_agency_line,-77.0,7.0,7.0,0.0,0.0,0.0,0.0,1
52,1,0,52,71,html-slider-response,71,384271,3823.0,60.0,1.0,question_agency,question_agency_line,-40.0,7.0,8.0,0.0,0.0,0.0,0.0,2
53,1,0,53,120,html-slider-response,120,641991,31005.0,56.0,1.0,question_agency,question_agency_line,-44.0,9.0,7.0,0.0,0.0,0.0,0.0,3
50,1,0,50,136,html-slider-response,136,919518,49430.0,60.0,1.0,question_agency,question_agency_line,-40.0,10.0,11.0,0.0,0.0,0.0,0.0,4
54,1,0,54,164,html-slider-response,164,1408232,19859.0,16.0,1.0,question_agency,question_agency_line,-84.0,5.0,6.0,0.0,0.0,0.0,0.0,5
1,2,1,1,28,html-slider-response,28,167769,3821.0,0.0,0.0,question_agency,question_agency_line,0.0,7.0,6.0,26.0,18.0,-0.4522550002033482,0.13970214861184688,1
3,2,1,3,77,html-slider-response,77,397151,2568.0,0.0,0.0,question_agency,question_agency_line,0.0,2.0,6.0,37.0,30.0,-0.12655818968417257,0.08288549698307475,2
0,2,1,0,114,html-slider-response,114,557148,3669.0,0.0,0.0,question_agency,question_agency_line,0.0,9.0,8.0,21.0,8.0,0.173349306722703,0.18801007536519057,3
4,2,1,4,151,html-slider-response,151,727912,3692.0,0.0,0.0,question_agency,question_agency_line,0.0,9.0,7.0,25.0,8.0,-0.26057595685523766,0.11188375680205354,4
2,2,1,2,176,html-slider-response,176,834808,4708.0,0.0,0.0,question_agency,question_agency_line,0.0,4.0,9.0,15.0,14.0,-0.12094837885794837,-0.06894228815585465,5
6,2,1,6,37,html-slider-response,37,205118,2951.0,0.0,0.1,question_agency,question_agency_line,-10.0,10.0,11.0,40.0,10.0,-0.1190246364497299,0.03262934968406191,1
5,2,1,5,62,html-slider-response,62,336881,14842.0,39.0,0.1,question_agency,question_agency_line,29.0,5.0,2.0,17.0,12.0,-0.27856580758038174,-0.04555607737537929,2
8,2,1,8,108,html-slider-response,108,532029,4023.0,8.0,0.1,question_agency,question_agency_line,-2.0,5.0,6.0,24.0,6.0,0.08745184867117801,0.31211532865727565,3
9,2,1,9,142,html-slider-response,142,690241,3717.0,32.0,0.1,question_agency,question_agency_line,22.0,6.0,7.0,43.0,31.0,-0.047862067141341336,0.020488805473112635,4
7,2,1,7,173,html-slider-response,173,821095,2989.0,2.0,0.1,question_agency,question_agency_line,-8.0,6.0,5.0,14.0,6.0,-0.2963921812773837,0.11121272494434435,5
11,2,1,11,40,html-slider-response,40,221574,7450.0,5.0,0.2,question_agency,question_agency_line,-15.0,7.0,4.0,40.0,6.0,-0.377363415102144,0.18354675010325824,1
13,2,1,13,86,html-slider-response,86,435805,4089.0,33.0,0.2,question_agency,question_agency_line,13.0,6.0,9.0,20.0,4.0,-0.17191555119775934,0.1826085591343631,2
10,2,1,10,117,html-slider-response,117,569875,3711.0,0.0,0.2,question_agency,question_agency_line,-20.0,3.0,6.0,28.0,22.0,-0.15887107903926234,0.07277195757404464,3
14,2,1,14,136,html-slider-response,136,665336,7247.0,8.0,0.2,question_agency,question_agency_line,-12.0,3.0,4.0,17.0,16.0,0.0985250272265797,-0.4950304651723297,4
12,2,1,12,167,html-slider-response,167,796774,4143.0,0.0,0.2,question_agency,question_agency_line,-20.0,9.0,7.0,14.0,7.0,0.06348956176602569,-0.01664802115573915,5
18,2,1,18,49,html-slider-response,49,264852,8728.0,0.0,0.3,question_agency,question_agency_line,-30.0,9.0,7.0,25.0,6.0,-0.3424141935006548,-0.21822256495782053,1
15,2,1,15,80,html-slider-response,80,410511,4349.0,37.0,0.3,question_agency,question_agency_line,7.0,7.0,6.0,18.0,20.0,0.14315961282299772,0.056781136782200016,2
19,2,1,19,102,html-slider-response,102,506045,4450.0,14.0,0.3,question_agency,question_agency_line,-16.0,6.0,8.0,16.0,8.0,-0.04902161233273934,0.2108895202989878,3
17,2,1,17,154,html-slider-response,154,743672,6754.0,35.0,0.3,question_agency,question_agency_line,5.0,6.0,6.0,11.0,20.0,0.29096270297004695,-0.12585806180911557,4
16,2,1,16,188,html-slider-response,188,890598,5039.0,78.0,0.3,question_agency,question_agency_line,48.0,4.0,5.0,8.0,8.0,0.2448955300889508,0.15962168907879073,5
21,2,1,21,52,html-slider-response,52,279316,5452.0,5.0,0.4,question_agency,question_agency_line,-35.0,5.0,9.0,16.0,10.0,-0.18590233065657266,0.20925286751085292,1
20,2,1,20,56,html-slider-response,56,299104,8651.0,36.0,0.4,question_agency,question_agency_line,-4.0,8.0,8.0,33.0,8.0,0.38059534081374535,0.22898466103076515,2
24,2,1,24,93,html-slider-response,93,464934,6902.0,39.0,0.4,question_agency,question_agency_line,-1.0,7.0,8.0,37.0,6.0,0.40269514470589085,0.33992371121253195,3
22,2,1,22,127,html-slider-response,127,618186,10554.0,58.0,0.4,question_agency,question_agency_line,18.0,7.0,6.0,18.0,12.0,0.0005911434669200854,-0.200094473298845,4
23,2,1,23,179,html-slider-response,179,850333,6511.0,55.0,0.4,question_agency,question_agency_line,15.0,6.0,9.0,21.0,8.0,0.059168856722936564,-0.11692196203556204,5
27,2,1,27,22,html-slider-response,22,138144,26681.0,31.0,0.5,question_agency,question_agency_line,-19.0,5.0,7.0,13.0,10.0,0.1759192404675678,-0.2515052866225257,1
28,2,1,28,68,html-slider-response,68,361575,2938.0,83.0,0.5,question_agency,question_agency_line,33.0,7.0,7.0,11.0,14.0,0.13580381590532797,0.019436242833833106,2
29,2,1,29,90,html-slider-response,90,449022,2767.0,62.0,0.5,question_agency,question_agency_line,12.0,10.0,10.0,21.0,31.0,-0.10190881144733478,-0.19369386929409968,3
26,2,1,26,148,html-slider-response,148,715209,2832.0,86.0,0.5,question_agency,question_agency_line,36.0,5.0,8.0,29.0,35.0,0.10991817681401946,-0.12740689763635346,4
25,2,1,25,182,html-slider-response,182,863702,4354.0,79.0,0.5,question_agency,question_agency_line,29.0,9.0,5.0,12.0,9.0,0.24424255122084795,0.06754023795313621,5
30,2,1,30,25,html-slider-response,25,154936,7782.0,73.0,0.6,question_agency,question_agency_line,13.0,10.0,7.0,17.0,16.0,-0.054050299591007454,0.2909496853059453,1
34,2,1,34,59,html-slider-response,59,313025,4912.0,84.0,0.6,question_agency,question_agency_line,24.0,5.0,7.0,15.0,14.0,-0.49864318648334,0.04321045763251675,2
31,2,1,31,120,html-slider-response,120,582435,3547.0,88.0,0.6,question_agency,question_agency_line,28.0,10.0,9.0,19.0,12.0,0.16689094020218226,0.03043865791876918,3
32,2,1,32,130,html-slider-response,130,629634,2441.0,87.0,0.6,question_agency,question_agency_line,27.0,10.0,7.0,12.0,14.0,-0.09384899935681323,0.4683234629608508,4
33,2,1,33,161,html-slider-response,161,769553,3890.0,90.0,0.6,question_agency,question_agency_line,30.0,9.0,5.0,17.0,14.0,0.14472993808213638,-0.07263175827781398,5
36,2,1,36,31,html-slider-response,31,180773,3997.0,100.0,0.7,question_agency,question_agency_line,30.0,6.0,6.0,15.0,12.0,-0.32264519885483806,-0.3435713086703569,1
39,2,1,39,71,html-slider-response,71,373959,3371.0,85.0,0.7,question_agency,question_agency_line,15.0,6.0,7.0,9.0,12.0,-0.2808328261449889,0.013154004844666504,2
35,2,1,35,96,html-slider-response,96,480540,6596.0,71.0,0.7,question_agency,question_agency_line,1.0,5.0,5.0,18.0,19.0,0.33143089389922953,-0.12410836745428658,3
38,2,1,38,133,html-slider-response,133,649075,10430.0,76.0,0.7,question_agency,question_agency_line,6.0,7.0,3.0,15.0,16.0,-0.3247321928163854,-0.1896120839747704,4
37,2,1,37,170,html-slider-response,170,809103,3319.0,90.0,0.7,question_agency,question_agency_line,20.0,8.0,7.0,13.0,9.0,0.1444766974840604,0.09534734850431582,5
40,2,1,40,46,html-slider-response,46,247115,3864.0,100.0,0.8,question_agency,question_agency_line,20.0,9.0,9.0,22.0,16.0,-0.051092729148092146,-0.2427511240037823,1
44,2,1,44,83,html-slider-response,83,422701,3176.0,100.0,0.8,question_agency,question_agency_line,20.0,7.0,5.0,36.0,12.0,0.0345023208684684,-0.00747013848116644,2
42,2,1,42,99,html-slider-response,99,492580,3030.0,83.0,0.8,question_agency,question_agency_line,3.0,9.0,8.0,15.0,12.0,0.11481625910980758,0.26069199799409837,3
43,2,1,43,139,html-slider-response,139,677512,3170.0,100.0,0.8,question_agency,question_agency_line,20.0,2.0,2.0,30.0,33.0,-0.06492483023173914,0.13873467276702559,4
41,2,1,41,164,html-slider-response,164,783614,5056.0,98.0,0.8,question_agency,question_agency_line,18.0,4.0,9.0,18.0,17.0,-0.5396696506217799,-0.017498638333606497,5
47,2,1,47,34,html-slider-response,34,193157,3377.0,100.0,0.9,question_agency,question_agency_line,10.0,5.0,5.0,31.0,32.0,-0.23494008591285026,0.2600931898072703,1
46,2,1,46,74,html-slider-response,74,385575,2609.0,100.0,0.9,question_agency,question_agency_line,10.0,7.0,5.0,27.0,27.0,0.023653061448709874,-0.03401590377562018,2
49,2,1,49,111,html-slider-response,111,544475,3440.0,100.0,0.9,question_agency,question_agency_line,10.0,7.0,7.0,18.0,11.0,0.3062378793421685,-0.26036291068830264,3
48,2,1,48,124,html-slider-response,124,598625,4718.0,100.0,0.9,question_agency,question_agency_line,10.0,8.0,6.0,10.0,9.0,0.07752463770747157,0.09047401104920538,4
45,2,1,45,185,html-slider-response,185,876542,3829.0,100.0,0.9,question_agency,question_agency_line,10.0,10.0,7.0,10.0,10.0,-0.27243098157036183,-0.029774728959161823,5
52,2,1,52,43,html-slider-response,43,234239,3655.0,100.0,1.0,question_agency,question_agency_line,0.0,8.0,8.0,22.0,19.0,0.26402002551400083,0.12281015522701419,1
53,2,1,53,65,html-slider-response,65,349634,3745.0,100.0,1.0,question_agency,question_agency_line,0.0,9.0,7.0,15.0,14.0,0.3067725893441449,-0.08308448656901388,2
54,2,1,54,105,html-slider-response,105,518989,3935.0,100.0,1.0,question_agency,question_agency_line,0.0,4.0,7.0,11.0,10.0,0.056380506029883266,0.07285662722692565,3
51,2,1,51,145,html-slider-response,145,703369,4118.0,100.0,1.0,question_agency,question_agency_line,0.0,9.0,10.0,32.0,29.0,0.11914890971677984,0.3345032049759819,4
50,2,1,50,158,html-slider-response,158,756648,2912.0,100.0,1.0,question_agency,question_agency_line,0.0,9.0,6.0,9.0,6.0,-0.08382888789766087,-0.05792897629839096,5
3,3,1,3,34,html-slider-response,34,175060,3267.0,5.0,0.0,question_agency,question_agency_line,5.0,8.0,4.0,11.0,9.0,-0.2898808551895359,0.6874192368721757,1
2,3,1,2,86,html-slider-response,86,377273,2331.0,21.0,0.0,question_agency,question_agency_line,21.0,6.0,6.0,8.0,18.0,-0.016078845016491723,-0.07689218261797776,2
0,3,1,0,99,html-slider-response,99,427416,2265.0,0.0,0.0,question_agency,question_agency_line,0.0,7.0,8.0,14.0,11.0,-0.14777363115831144,0.051998875587029765,3
1,3,1,1,127,html-slider-response,127,537058,3562.0,12.0,0.0,question_agency,question_agency_line,12.0,7.0,8.0,8.0,6.0,0.13509890760638624,0.1960424750288452,4
4,3,1,4,164,html-slider-response,164,691497,3729.0,7.0,0.0,question_agency,question_agency_line,7.0,6.0,6.0,7.0,2.0,-0.0026063373335936603,0.16720730994101568,5
9,3,1,9,43,html-slider-response,43,209587,2158.0,15.0,0.1,question_agency,question_agency_line,5.0,8.0,9.0,15.0,12.0,0.08685368133210841,0.059476014785750514,1
6,3,1,6,83,html-slider-response,83,365931,2605.0,0.0,0.1,question_agency,question_agency_line,-10.0,6.0,9.0,15.0,18.0,-0.05702719288107505,-0.03464049365943357,2
7,3,1,7,105,html-slider-response,105,451602,2796.0,22.0,0.1,question_agency,question_agency_line,12.0,7.0,8.0,9.0,17.0,0.0689507622561749,0.026023446561252446,3
5,3,1,5,148,html-slider-response,148,624753,3488.0,4.0,0.1,question_agency,question_agency_line,-6.0,9.0,9.0,7.0,13.0,0.25723707736389523,0.2977315276477161,4
8,3,1,8,179,html-slider-response,179,758693,3757.0,3.0,0.1,question_agency,question_agency_line,-7.0,5.0,8.0,4.0,9.0,0.3104514444450225,0.05135616353034552,5
11,3,1,11,25,html-slider-response,25,138706,2893.0,29.0,0.2,question_agency,question_agency_line,9.0,7.0,4.0,10.0,7.0,0.13180408965579984,-0.17653245753513527,1
14,3,1,14,74,html-slider-response,74,331692,2209.0,4.0,0.2,question_agency,question_agency_line,-16.0,7.0,8.0,10.0,18.0,-0.1583626694701436,0.1159002589720568,2
12,3,1,12,111,html-slider-response,111,475064,2453.0,20.0,0.2,question_agency,question_agency_line,0.0,6.0,7.0,7.0,2.0,0.08358807610548381,0.6197322697066847,3
13,3,1,13,151,html-slider-response,151,638487,4725.0,0.0,0.2,question_agency,question_agency_line,-20.0,9.0,9.0,9.0,17.0,-0.28439587575193337,0.007750486760520712,4
10,3,1,10,158,html-slider-response,158,665743,2538.0,23.0,0.2,question_agency,question_agency_line,3.0,5.0,5.0,4.0,5.0,0.06585153718204538,0.5828344162049264,5
17,3,1,17,46,html-slider-response,46,221694,3099.0,17.0,0.3,question_agency,question_agency_line,-13.0,8.0,7.0,7.0,6.0,0.4708730384965137,0.11339628708157214,1
16,3,1,16,80,html-slider-response,80,354318,2207.0,35.0,0.3,question_agency,question_agency_line,5.0,4.0,6.0,1.0,17.0,0.27632331407908645,0.5066729668807486,2
19,3,1,19,114,html-slider-response,114,488113,4039.0,30.0,0.3,question_agency,question_agency_line,0.0,7.0,11.0,5.0,18.0,0.37696992209087526,0.13133326899896697,3
15,3,1,15,142,html-slider-response,142,600165,2683.0,47.0,0.3,question_agency,question_agency_line,17.0,6.0,7.0,7.0,6.0,0.026276981196573405,0.2910070432584401,4
18,3,1,18,167,html-slider-response,167,704235,3722.0,33.0,0.3,question_agency,question_agency_line,3.0,3.0,6.0,3.0,6.0,0.4761248310335617,0.354382664272259,5
22,3,1,22,52,html-slider-response,52,247763,3856.0,44.0,0.4,question_agency,question_agency_line,4.0,7.0,9.0,11.0,6.0,-0.07126767672332729,0.439561740753506,1
21,3,1,21,65,html-slider-response,65,297439,2396.0,18.0,0.4,question_agency,question_agency_line,-22.0,5.0,7.0,6.0,10.0,0.02895546358703343,0.2562722324504867,2
23,3,1,23,90,html-slider-response,90,390810,3111.0,34.0,0.4,question_agency,question_agency_line,-6.0,8.0,7.0,7.0,6.0,-0.04463515017265037,0.18251314544268052,3
24,3,1,24,145,html-slider-response,145,612255,3077.0,21.0,0.4,question_agency,question_agency_line,-19.0,6.0,8.0,6.0,1.0,0.5139148729021953,0.6058413523505333,4
20,3,1,20,185,html-slider-response,185,784047,3686.0,0.0,0.4,question_agency,question_agency_line,-40.0,8.0,6.0,2.0,10.0,-0.27108214401188524,-0.27676818242791185,5
29,3,1,29,49,html-slider-response,49,234897,4193.0,39.0,0.5,question_agency,question_agency_line,-11.0,5.0,8.0,8.0,2.0,0.3837614465321314,0.21572411316539236,1
26,3,1,26,77,html-slider-response,77,343100,2397.0,37.0,0.5,question_agency,question_agency_line,-13.0,3.0,8.0,12.0,9.0,-0.046531936442522764,0.3160399553140466,2
25,3,1,25,117,html-slider-response,117,500025,2903.0,57.0,0.5,question_agency,question_agency_line,7.0,7.0,6.0,8.0,9.0,0.3314327433822546,0.3083569274747314,3
27,3,1,27,130,html-slider-response,130,548782,2714.0,36.0,0.5,question_agency,question_agency_line,-14.0,7.0,10.0,7.0,6.0,-0.5606220889869021,-0.6192045697261549,4
28,3,1,28,170,html-slider-response,170,719157,5911.0,23.0,0.5,question_agency,question_agency_line,-27.0,5.0,5.0,2.0,5.0,-0.6058055552587385,0.2359172624907748,5
31,3,1,31,40,html-slider-response,40,198420,2524.0,57.0,0.6,question_agency,question_agency_line,-3.0,11.0,5.0,8.0,6.0,0.41291746362543724,0.460692171000749,1
30,3,1,30,59,html-slider-response,59,274304,2420.0,56.0,0.6,question_agency,question_agency_line,-4.0,9.0,7.0,3.0,6.0,0.15899092866439107,-0.1494313497778854,2
33,3,1,33,93,html-slider-response,93,403107,3286.0,42.0,0.6,question_agency,question_agency_line,-18.0,6.0,5.0,10.0,9.0,-0.20403809167035317,0.35596406253097634,3
34,3,1,34,133,html-slider-response,133,562814,5021.0,46.0,0.6,question_agency,question_agency_line,-14.0,5.0,2.0,9.0,9.0,-0.3206598152545253,-0.5548031447135288,4
32,3,1,32,173,html-slider-response,173,731928,3758.0,24.0,0.6,question_agency,question_agency_line,-36.0,5.0,6.0,4.0,3.0,0.0172644061616723,0.4202528988196692,5
37,3,1,37,22,html-slider-response,22,126800,5471.0,67.0,0.7,question_agency,question_agency_line,-3.0,7.0,7.0,7.0,9.0,-0.10585252260768772,-0.11295605034728054,1
39,3,1,39,71,html-slider-response,71,320475,2302.0,59.0,0.7,question_agency,question_agency_line,-11.0,9.0,10.0,6.0,9.0,-0.38924709880091907,-0.3813359877172851,2
38,3,1,38,120,html-slider-response,120,511298,2263.0,65.0,0.7,question_agency,question_agency_line,-5.0,5.0,6.0,7.0,6.0,-0.5132293286959254,-0.09287398257496436,3
35,3,1,35,139,html-slider-response,139,588470,3316.0,59.0,0.7,question_agency,question_agency_line,-11.0,5.0,5.0,4.0,3.0,0.4202988540715299,0.4861305814990602,4
36,3,1,36,182,html-slider-response,182,771349,3646.0,23.0,0.7,question_agency,question_agency_line,-47.0,5.0,6.0,4.0,3.0,-0.18018263108589652,-0.008302510214240326,5
41,3,1,41,31,html-slider-response,31,162784,2898.0,58.0,0.8,question_agency,question_agency_line,-22.0,7.0,7.0,6.0,4.0,0.3421764385305214,-0.16986151927143472,1
44,3,1,44,56,html-slider-response,56,262876,2555.0,77.0,0.8,question_agency,question_agency_line,-3.0,8.0,5.0,6.0,6.0,0.06626445331785671,0.48386038278045723,2
40,3,1,40,108,html-slider-response,108,463599,2988.0,47.0,0.8,question_agency,question_agency_line,-33.0,10.0,10.0,7.0,11.0,-0.0808512242166966,0.29355805231145726,3
42,3,1,42,154,html-slider-response,154,651749,4245.0,31.0,0.8,question_agency,question_agency_line,-49.0,6.0,7.0,2.0,9.0,0.04672648635027077,-0.4312889383558563,4
43,3,1,43,161,html-slider-response,161,678757,4005.0,82.0,0.8,question_agency,question_agency_line,2.0,8.0,6.0,2.0,9.0,-0.6914605490321524,0.3538581493683012,5
46,3,1,46,28,html-slider-response,28,150875,3159.0,77.0,0.9,question_agency,question_agency_line,-13.0,6.0,7.0,7.0,8.0,0.0054148469250917975,0.4741796586270248,1
48,3,1,48,68,html-slider-response,68,309163,2716.0,53.0,0.9,question_agency,question_agency_line,-37.0,7.0,7.0,9.0,6.0,0.224200445829063,0.30775476629404275,2
49,3,1,49,96,html-slider-response,96,416141,4022.0,59.0,0.9,question_agency,question_agency_line,-31.0,5.0,9.0,5.0,7.0,-0.41110278444664583,-0.04760820332048831,3
45,3,1,45,124,html-slider-response,124,524488,2344.0,69.0,0.9,question_agency,question_agency_line,-21.0,6.0,5.0,3.0,4.0,-0.43583835497984597,0.5578939871440083,4
47,3,1,47,176,html-slider-response,176,745926,4988.0,86.0,0.9,question_agency,question_agency_line,-4.0,5.0,6.0,2.0,3.0,0.32123117915637883,0.020540808700718522,5
50,3,1,50,37,html-slider-response,37,186886,2816.0,100.0,1.0,question_agency,question_agency_line,0.0,7.0,5.0,4.0,4.0,0.048214756815728434,0.3349610850082297,1
53,3,1,53,62,html-slider-response,62,286035,2724.0,100.0,1.0,question_agency,question_agency_line,0.0,7.0,9.0,5.0,13.0,-0.07241969856597928,-0.06309712400071459,2
52,3,1,52,102,html-slider-response,102,439794,3369.0,100.0,1.0,question_agency,question_agency_line,0.0,9.0,5.0,8.0,7.0,-0.1514917618139393,-0.7890733318437245,3
51,3,1,51,136,html-slider-response,136,576144,4321.0,100.0,1.0,question_agency,question_agency_line,0.0,9.0,5.0,1.0,4.0,0.3498967734365061,0.44627873646056493,4
54,3,1,54,188,html-slider-response,188,798737,5679.0,100.0,1.0,question_agency,question_agency_line,0.0,4.0,5.0,4.0,3.0,0.12229820532566098,-0.27363839572892795,5
1,4,1,1,28,html-slider-response,28,185371,5163.0,8.0,0.0,question_agency,question_agency_line,8.0,8.0,8.0,23.0,40.0,-0.16894874321780173,-0.09426375059266566,1
0,4,1,0,77,html-slider-response,77,399985,4272.0,5.0,0.0,question_agency,question_agency_line,5.0,8.0,8.0,40.0,10.0,-0.04418251660616994,0.004720789247857047,2
4,4,1,4,99,html-slider-response,99,484527,2457.0,0.0,0.0,question_agency,question_agency_line,0.0,7.0,8.0,10.0,28.0,0.36163252286446484,-0.09067029265321419,3
3,4,1,3,139,html-slider-response,139,635846,2024.0,0.0,0.0,question_agency,question_agency_line,0.0,9.0,7.0,26.0,12.0,0.001955266588760694,0.11497614104468444,4
2,4,1,2,182,html-slider-response,182,797290,2114.0,0.0,0.0,question_agency,question_agency_line,0.0,9.0,6.0,28.0,22.0,-0.1774823961779562,-0.23135527372963352,5
9,4,1,9,52,html-slider-response,52,296844,4519.0,8.0,0.1,question_agency,question_agency_line,-2.0,7.0,5.0,64.0,0.0,0.17785920272377592,0.0,1
5,4,1,5,65,html-slider-response,65,349472,3938.0,0.0,0.1,question_agency,question_agency_line,-10.0,8.0,7.0,18.0,44.0,-0.09289348538840138,-0.1722949418237594,2
6,4,1,6,90,html-slider-response,90,450885,3131.0,0.0,0.1,question_agency,question_agency_line,-10.0,8.0,9.0,14.0,40.0,0.04602726407869442,0.1645435679873884,3
8,4,1,8,154,html-slider-response,154,694160,3158.0,0.0,0.1,question_agency,question_agency_line,-10.0,7.0,6.0,10.0,34.0,0.004016033463497888,0.01927757308106727,4
7,4,1,7,158,html-slider-response,158,706494,2130.0,3.0,0.1,question_agency,question_agency_line,-7.0,4.0,7.0,10.0,20.0,0.2124635716478506,0.4637362278966817,5
14,4,1,14,25,html-slider-response,25,171200,8933.0,62.0,0.2,question_agency,question_agency_line,42.0,8.0,11.0,14.0,39.0,0.11587923041555083,0.10991660774738554,1
12,4,1,12,68,html-slider-response,68,361938,3458.0,0.0,0.2,question_agency,question_agency_line,-20.0,4.0,6.0,40.0,18.0,0.0005751733082940988,-0.40967202807774766,2
10,4,1,10,120,html-slider-response,120,564632,2421.0,0.0,0.2,question_agency,question_agency_line,-20.0,7.0,7.0,8.0,29.0,0.005292777627612343,-0.11977653429832925,3
11,4,1,11,136,html-slider-response,136,624818,2103.0,9.0,0.2,question_agency,question_agency_line,-11.0,6.0,5.0,24.0,12.0,-0.07320703495796184,0.1395250400148585,4
13,4,1,13,173,html-slider-response,173,764052,3216.0,56.0,0.2,question_agency,question_agency_line,36.0,7.0,6.0,18.0,16.0,0.027252790821267126,0.3398118926776604,5
16,4,1,16,22,html-slider-response,22,153255,9611.0,54.0,0.3,question_agency,question_agency_line,24.0,7.0,5.0,8.0,36.0,0.1852361152361055,0.08882714977906556,1
19,4,1,19,59,html-slider-response,59,324424,3206.0,72.0,0.3,question_agency,question_agency_line,42.0,8.0,5.0,32.0,36.0,0.0795254952325462,0.269555862074699,2
17,4,1,17,105,html-slider-response,105,507550,2309.0,12.0,0.3,question_agency,question_agency_line,-18.0,6.0,4.0,16.0,16.0,0.03207682109931742,0.23001594930980818,3
15,4,1,15,133,html-slider-response,133,613708,3411.0,0.0,0.3,question_agency,question_agency_line,-30.0,7.0,6.0,28.0,25.0,0.0822109637295045,-0.0815104226099064,4
18,4,1,18,188,html-slider-response,188,821241,2614.0,8.0,0.3,question_agency,question_agency_line,-22.0,5.0,6.0,8.0,25.0,0.14940182672842497,-0.2639791469849465,5
21,4,1,21,34,html-slider-response,34,218250,6232.0,30.0,0.4,question_agency,question_agency_line,-10.0,7.0,8.0,28.0,22.0,-0.38421222960965473,-0.17964767315476837,1
22,4,1,22,56,html-slider-response,56,312210,3143.0,2.0,0.4,question_agency,question_agency_line,-38.0,5.0,7.0,0.0,80.0,0.0,-0.20650803882535254,2
23,4,1,23,114,html-slider-response,114,542214,3112.0,1.0,0.4,question_agency,question_agency_line,-39.0,4.0,7.0,18.0,28.0,-0.042181596689275416,-0.17821942356256867,3
20,4,1,20,148,html-slider-response,148,670245,2953.0,83.0,0.4,question_agency,question_agency_line,43.0,10.0,8.0,11.0,4.0,-0.09431076435769856,0.5938890193001508,4
24,4,1,24,176,html-slider-response,176,775058,1998.0,0.0,0.4,question_agency,question_agency_line,-40.0,5.0,9.0,10.0,33.0,0.06689717358745632,-0.20562653678618584,5
29,4,1,29,31,html-slider-response,31,203007,8625.0,48.0,0.5,question_agency,question_agency_line,-2.0,11.0,8.0,26.0,33.0,-0.09838306982376928,0.11943374924276456,1
25,4,1,25,74,html-slider-response,74,386703,3282.0,14.0,0.5,question_agency,question_agency_line,-36.0,8.0,9.0,22.0,32.0,0.028928495998737907,0.03571313536457701,2
27,4,1,27,117,html-slider-response,117,553206,1983.0,17.0,0.5,question_agency,question_agency_line,-33.0,6.0,6.0,7.0,10.0,0.3431530709139779,0.4192251340449561,3
26,4,1,26,124,html-slider-response,124,577307,2074.0,34.0,0.5,question_agency,question_agency_line,-16.0,6.0,9.0,6.0,16.0,0.21977260737017332,-0.09981765299597531,4
28,4,1,28,179,html-slider-response,179,786170,2107.0,51.0,0.5,question_agency,question_agency_line,1.0,6.0,7.0,18.0,25.0,-0.4966480061775903,-0.1218266899016693,5
30,4,1,30,40,html-slider-response,40,244619,4094.0,58.0,0.6,question_agency,question_agency_line,-2.0,7.0,7.0,9.0,58.0,0.12998939913079388,-0.06359144896861718,1
33,4,1,33,62,html-slider-response,62,336524,3093.0,50.0,0.6,question_agency,question_agency_line,-10.0,8.0,5.0,15.0,54.0,0.2739851162368852,-0.373853272225258,2
31,4,1,31,96,html-slider-response,96,473063,2080.0,0.0,0.6,question_agency,question_agency_line,-60.0,6.0,6.0,16.0,31.0,-0.3201670002652782,-0.2055984778876104,3
32,4,1,32,151,html-slider-response,151,681996,2746.0,64.0,0.6,question_agency,question_agency_line,4.0,6.0,9.0,4.0,6.0,0.33552198194246385,-0.23870537551590038,4
34,4,1,34,167,html-slider-response,167,740274,2398.0,61.0,0.6,question_agency,question_agency_line,1.0,7.0,4.0,10.0,26.0,-0.04714167060000195,0.18469689797742606,5
35,4,1,35,43,html-slider-response,43,257184,3558.0,78.0,0.7,question_agency,question_agency_line,8.0,8.0,9.0,8.0,58.0,0.011730124203337623,0.043535686319264806,1
36,4,1,36,83,html-slider-response,83,424404,3163.0,50.0,0.7,question_agency,question_agency_line,-20.0,5.0,8.0,22.0,42.0,-0.21586070979054253,-0.14558427093181836,2
38,4,1,38,111,html-slider-response,111,530095,2376.0,100.0,0.7,question_agency,question_agency_line,30.0,6.0,10.0,6.0,9.0,0.4615263803907104,0.11687007138114618,3
37,4,1,37,130,html-slider-response,130,601294,2795.0,55.0,0.7,question_agency,question_agency_line,-15.0,9.0,8.0,26.0,7.0,-0.2192575843134369,-0.08849030481964133,4
39,4,1,39,185,html-slider-response,185,809620,3326.0,46.0,0.7,question_agency,question_agency_line,-24.0,9.0,8.0,4.0,24.0,0.21561686600655375,-0.2658661048413748,5
40,4,1,40,46,html-slider-response,46,270040,3847.0,100.0,0.8,question_agency,question_agency_line,20.0,9.0,10.0,0.0,66.0,0.0,-0.2816540687789582,1
41,4,1,41,86,html-slider-response,86,436759,3348.0,100.0,0.8,question_agency,question_agency_line,20.0,4.0,4.0,21.0,24.0,-0.21480528998272422,0.4435102251018445,2
43,4,1,43,93,html-slider-response,93,461975,2083.0,100.0,0.8,question_agency,question_agency_line,20.0,7.0,10.0,4.0,15.0,0.3103687151898866,-0.18733849611034403,3
42,4,1,42,145,html-slider-response,145,658284,1997.0,100.0,0.8,question_agency,question_agency_line,20.0,5.0,7.0,4.0,15.0,0.1742615454433043,-0.08504596772996896,4
44,4,1,44,161,html-slider-response,161,717930,2432.0,100.0,0.8,question_agency,question_agency_line,20.0,5.0,8.0,4.0,22.0,0.15571362338762695,0.23876310219048413,5
49,4,1,49,49,html-slider-response,49,283318,4271.0,100.0,0.9,question_agency,question_agency_line,10.0,6.0,4.0,62.0,0.0,0.018567298720330517,0.0,1
46,4,1,46,71,html-slider-response,71,374415,3469.0,100.0,0.9,question_agency,question_agency_line,10.0,5.0,7.0,12.0,50.0,-0.3146133918748891,-0.10021596761909014,2
48,4,1,48,102,html-slider-response,102,496234,2698.0,100.0,0.9,question_agency,question_agency_line,10.0,2.0,6.0,6.0,8.0,0.44151997373747637,-0.3870261610792069,3
47,4,1,47,127,html-slider-response,127,589502,3208.0,100.0,0.9,question_agency,question_agency_line,10.0,7.0,8.0,14.0,16.0,0.1738714938159452,0.11097724742344532,4
45,4,1,45,164,html-slider-response,164,728869,1931.0,100.0,0.9,question_agency,question_agency_line,10.0,10.0,8.0,4.0,27.0,0.21170314122009487,0.12842014173090366,5
54,4,1,54,37,html-slider-response,37,231518,4262.0,90.0,1.0,question_agency,question_agency_line,-10.0,8.0,8.0,18.0,36.0,-0.10028926097488661,0.09962002572530267,1
53,4,1,53,80,html-slider-response,80,412235,3245.0,100.0,1.0,question_agency,question_agency_line,0.0,7.0,4.0,30.0,13.0,-0.3523977771803177,0.10288912394429041,2
52,4,1,52,108,html-slider-response,108,518713,2155.0,100.0,1.0,question_agency,question_agency_line,0.0,7.0,7.0,8.0,19.0,-0.012270008772862774,-0.1397134661940525,3
50,4,1,50,142,html-slider-response,142,647280,2429.0,100.0,1.0,question_agency,question_agency_line,0.0,9.0,6.0,4.0,6.0,0.07219303302635403,-0.146106440105363,4
51,4,1,51,170,html-slider-response,170,751829,2550.0,100.0,1.0,question_agency,question_agency_line,0.0,11.0,8.0,8.0,17.0,0.11303072649964942,-0.03390482809380278,5
2,5,0,2,34,html-slider-response,34,172297,4279.0,0.0,0.0,question_agency,question_agency_line,0.0,6.0,6.0,0.0,0.0,0.0,0.0,1
1,5,0,1,65,html-slider-response,65,306375,3627.0,0.0,0.0,question_agency,question_agency_line,0.0,9.0,8.0,0.0,0.0,0.0,0.0,2
3,5,0,3,96,html-slider-response,96,437869,4138.0,0.0,0.0,question_agency,question_agency_line,0.0,10.0,9.0,0.0,0.0,0.0,0.0,3
4,5,0,4,142,html-slider-response,142,647446,2530.0,0.0,0.0,question_agency,question_agency_line,0.0,7.0,8.0,0.0,0.0,0.0,0.0,4
0,5,0,0,188,html-slider-response,188,852274,9497.0,0.0,0.0,question_agency,question_agency_line,0.0,5.0,5.0,0.0,0.0,0.0,0.0,5
8,5,0,8,40,html-slider-response,40,196681,3180.0,2.0,0.1,question_agency,question_agency_line,-8.0,2.0,6.0,0.0,0.0,0.0,0.0,1
7,5,0,7,86,html-slider-response,86,398299,4383.0,0.0,0.1,question_agency,question_agency_line,-10.0,9.0,9.0,0.0,0.0,0.0,0.0,2
6,5,0,6,114,html-slider-response,114,509502,4950.0,0.0,0.1,question_agency,question_agency_line,-10.0,9.0,7.0,0.0,0.0,0.0,0.0,3
5,5,0,5,139,html-slider-response,139,635892,2543.0,0.0,0.1,question_agency,question_agency_line,-10.0,6.0,4.0,0.0,0.0,0.0,0.0,4
9,5,0,9,182,html-slider-response,182,819787,4821.0,0.0,0.1,question_agency,question_agency_line,-10.0,9.0,9.0,0.0,0.0,0.0,0.0,5
11,5,0,11,46,html-slider-response,46,222449,4070.0,1.0,0.2,question_agency,question_agency_line,-19.0,7.0,7.0,0.0,0.0,0.0,0.0,1
10,5,0,10,56,html-slider-response,56,268128,5383.0,1.0,0.2,question_agency,question_agency_line,-19.0,5.0,9.0,0.0,0.0,0.0,0.0,2
12,5,0,12,111,html-slider-response,111,495532,2633.0,0.0,0.2,question_agency,question_agency_line,-20.0,10.0,7.0,0.0,0.0,0.0,0.0,3
13,5,0,13,130,html-slider-response,130,590684,7887.0,0.0,0.2,question_agency,question_agency_line,-20.0,8.0,9.0,0.0,0.0,0.0,0.0,4
14,5,0,14,170,html-slider-response,170,766943,5446.0,0.0,0.2,question_agency,question_agency_line,-20.0,7.0,7.0,0.0,0.0,0.0,0.0,5
18,5,0,18,31,html-slider-response,31,159001,4850.0,10.0,0.3,question_agency,question_agency_line,-20.0,6.0,6.0,0.0,0.0,0.0,0.0,1
19,5,0,19,62,html-slider-response,62,293730,3194.0,0.0,0.3,question_agency,question_agency_line,-30.0,8.0,8.0,0.0,0.0,0.0,0.0,2
16,5,0,16,99,html-slider-response,99,449244,2357.0,0.0,0.3,question_agency,question_agency_line,-30.0,8.0,7.0,0.0,0.0,0.0,0.0,3
17,5,0,17,151,html-slider-response,151,683098,2234.0,0.0,0.3,question_agency,question_agency_line,-30.0,8.0,6.0,0.0,0.0,0.0,0.0,4
15,5,0,15,185,html-slider-response,185,833717,4903.0,0.0,0.3,question_agency,question_agency_line,-30.0,8.0,7.0,0.0,0.0,0.0,0.0,5
23,5,0,23,28,html-slider-response,28,145138,3233.0,16.0,0.4,question_agency,question_agency_line,-24.0,6.0,5.0,0.0,0.0,0.0,0.0,1
21,5,0,21,74,html-slider-response,74,348315,3880.0,0.0,0.4,question_agency,question_agency_line,-40.0,5.0,8.0,0.0,0.0,0.0,0.0,2
24,5,0,24,93,html-slider-response,93,424679,2793.0,0.0,0.4,question_agency,question_agency_line,-40.0,6.0,5.0,0.0,0.0,0.0,0.0,3
22,5,0,22,136,html-slider-response,136,624324,11642.0,0.0,0.4,question_agency,question_agency_line,-40.0,4.0,5.0,0.0,0.0,0.0,0.0,4
20,5,0,20,176,html-slider-response,176,792715,2633.0,0.0,0.4,question_agency,question_agency_line,-40.0,5.0,3.0,0.0,0.0,0.0,0.0,5
27,5,0,27,25,html-slider-response,25,132895,4949.0,11.0,0.5,question_agency,question_agency_line,-39.0,8.0,7.0,0.0,0.0,0.0,0.0,1
28,5,0,28,71,html-slider-response,71,335403,3905.0,0.0,0.5,question_agency,question_agency_line,-50.0,5.0,9.0,0.0,0.0,0.0,0.0,2
29,5,0,29,102,html-slider-response,102,461311,3059.0,0.0,0.5,question_agency,question_agency_line,-50.0,7.0,9.0,0.0,0.0,0.0,0.0,3
26,5,0,26,127,html-slider-response,127,573747,17797.0,0.0,0.5,question_agency,question_agency_line,-50.0,5.0,8.0,0.0,0.0,0.0,0.0,4
25,5,0,25,164,html-slider-response,164,736494,6545.0,0.0,0.5,question_agency,question_agency_line,-50.0,8.0,4.0,0.0,0.0,0.0,0.0,5
31,5,0,31,43,html-slider-response,43,209328,3628.0,1.0,0.6,question_agency,question_agency_line,-59.0,6.0,8.0,0.0,0.0,0.0,0.0,1
30,5,0,30,59,html-slider-response,59,281527,4153.0,0.0,0.6,question_agency,question_agency_line,-60.0,7.0,4.0,0.0,0.0,0.0,0.0,2
32,5,0,32,108,html-slider-response,108,483884,2232.0,0.0,0.6,question_agency,question_agency_line,-60.0,8.0,8.0,0.0,0.0,0.0,0.0,3
34,5,0,34,124,html-slider-response,124,546908,2322.0,0.0,0.6,question_agency,question_agency_line,-60.0,7.0,5.0,0.0,0.0,0.0,0.0,4
33,5,0,33,158,html-slider-response,158,708565,2149.0,0.0,0.6,question_agency,question_agency_line,-60.0,5.0,6.0,0.0,0.0,0.0,0.0,5
36,5,0,36,37,html-slider-response,37,184477,3159.0,0.0,0.7,question_agency,question_agency_line,-70.0,7.0,6.0,0.0,0.0,0.0,0.0,1
37,5,0,37,68,html-slider-response,68,322464,7069.0,0.0,0.7,question_agency,question_agency_line,-70.0,5.0,4.0,0.0,0.0,0.0,0.0,2
38,5,0,38,120,html-slider-response,120,532811,2480.0,0.0,0.7,question_agency,question_agency_line,-70.0,10.0,7.0,0.0,0.0,0.0,0.0,3
35,5,0,35,154,html-slider-response,154,695426,3293.0,0.0,0.7,question_agency,question_agency_line,-70.0,9.0,8.0,0.0,0.0,0.0,0.0,4
39,5,0,39,167,html-slider-response,167,752479,6960.0,0.0,0.7,question_agency,question_agency_line,-70.0,5.0,4.0,0.0,0.0,0.0,0.0,5
41,5,0,41,22,html-slider-response,22,118937,4481.0,10.0,0.8,question_agency,question_agency_line,-70.0,9.0,5.0,0.0,0.0,0.0,0.0,1
44,5,0,44,80,html-slider-response,80,372872,3860.0,0.0,0.8,question_agency,question_agency_line,-80.0,8.0,8.0,0.0,0.0,0.0,0.0,2
43,5,0,43,117,html-slider-response,117,521307,2792.0,0.0,0.8,question_agency,question_agency_line,-80.0,8.0,9.0,0.0,0.0,0.0,0.0,3
42,5,0,42,145,html-slider-response,145,659482,3015.0,0.0,0.8,question_agency,question_agency_line,-80.0,4.0,9.0,0.0,0.0,0.0,0.0,4
40,5,0,40,179,html-slider-response,179,805933,4197.0,0.0,0.8,question_agency,question_agency_line,-80.0,6.0,7.0,0.0,0.0,0.0,0.0,5
48,5,0,48,49,html-slider-response,49,235027,3544.0,0.0,0.9,question_agency,question_agency_line,-90.0,4.0,8.0,0.0,0.0,0.0,0.0,1
46,5,0,46,83,html-slider-response,83,384880,2963.0,0.0,0.9,question_agency,question_agency_line,-90.0,5.0,6.0,0.0,0.0,0.0,0.0,2
49,5,0,49,105,html-slider-response,105,472616,2284.0,0.0,0.9,question_agency,question_agency_line,-90.0,6.0,7.0,0.0,0.0,0.0,0.0,3
45,5,0,45,133,html-slider-response,133,603612,3896.0,0.0,0.9,question_agency,question_agency_line,-90.0,9.0,7.0,0.0,0.0,0.0,0.0,4
47,5,0,47,173,html-slider-response,173,781047,5077.0,0.0,0.9,question_agency,question_agency_line,-90.0,8.0,6.0,0.0,0.0,0.0,0.0,5
53,5,0,53,52,html-slider-response,52,248018,3966.0,0.0,1.0,question_agency,question_agency_line,-100.0,7.0,4.0,0.0,0.0,0.0,0.0,1
52,5,0,52,77,html-slider-response,77,359986,2636.0,0.0,1.0,question_agency,question_agency_line,-100.0,8.0,9.0,0.0,0.0,0.0,0.0,2
51,5,0,51,90,html-slider-response,90,412851,3117.0,0.0,1.0,question_agency,question_agency_line,-100.0,7.0,6.0,0.0,0.0,0.0,0.0,3
54,5,0,54,148,html-slider-response,148,671772,3271.0,0.0,1.0,question_agency,question_agency_line,-100.0,6.0,3.0,0.0,0.0,0.0,0.0,4
50,5,0,50,161,html-slider-response,161,720912,3315.0,0.0,1.0,question_agency,question_agency_line,-100.0,9.0,8.0,0.0,0.0,0.0,0.0,5
4,6,1,4,40,html-slider-response,40,179597,2814.0,0.0,0.0,question_agency,question_agency_line,0.0,5.0,7.0,15.0,4.0,0.18730818466880414,-0.05734458641787787,1
1,6,1,1,62,html-slider-response,62,275272,2760.0,1.0,0.0,question_agency,question_agency_line,1.0,4.0,7.0,7.0,12.0,-0.44305387265722995,0.16449057124040012,2
0,6,1,0,117,html-slider-response,117,629883,11981.0,28.0,0.0,question_agency,question_agency_line,28.0,9.0,9.0,2.0,6.0,-0.015504045481446281,0.1573603443991302,3
2,6,1,2,154,html-slider-response,154,837857,2206.0,92.0,0.0,question_agency,question_agency_line,92.0,9.0,6.0,9.0,10.0,-0.2938065035467132,-0.047647409941982674,4
3,6,1,3,167,html-slider-response,167,885889,2947.0,2.0,0.0,question_agency,question_agency_line,2.0,6.0,4.0,28.0,20.0,-0.13882970957195173,0.030581950642933346,5
9,6,1,9,37,html-slider-response,37,167769,2647.0,3.0,0.1,question_agency,question_agency_line,-7.0,5.0,5.0,9.0,9.0,-0.16032249272735435,0.009645027185911674,1
5,6,1,5,74,html-slider-response,74,353256,18769.0,3.0,0.1,question_agency,question_agency_line,-7.0,6.0,6.0,15.0,14.0,0.00252312862531629,-0.04453821496450435,2
8,6,1,8,102,html-slider-response,102,552960,2780.0,12.0,0.1,question_agency,question_agency_line,2.0,7.0,7.0,20.0,7.0,-0.21987871436083362,-0.0846249018603018,3
7,6,1,7,130,html-slider-response,130,736891,1799.0,29.0,0.1,question_agency,question_agency_line,19.0,5.0,5.0,18.0,7.0,-0.22000227344966825,0.4714247545351153,4
6,6,1,6,179,html-slider-response,179,934285,3355.0,11.0,0.1,question_agency,question_agency_line,1.0,6.0,7.0,40.0,29.0,-0.020926321796045533,0.0557647420072357,5
14,6,1,14,46,html-slider-response,46,205000,2498.0,45.0,0.2,question_agency,question_agency_line,25.0,5.0,7.0,16.0,16.0,-0.3234931337590293,0.12211151722755836,1
12,6,1,12,65,html-slider-response,65,285998,1714.0,2.0,0.2,question_agency,question_agency_line,-18.0,5.0,4.0,11.0,2.0,-0.2509330283688351,-0.3327453069404107,2
11,6,1,11,93,html-slider-response,93,517208,2345.0,13.0,0.2,question_agency,question_agency_line,-7.0,7.0,2.0,19.0,13.0,0.20076337324186724,0.020011115119192173,3
13,6,1,13,142,html-slider-response,142,793020,8741.0,66.0,0.2,question_agency,question_agency_line,46.0,6.0,7.0,10.0,11.0,-0.021621650789181594,-0.3732986201899277,4
10,6,1,10,158,html-slider-response,158,850158,1951.0,78.0,0.2,question_agency,question_agency_line,58.0,4.0,8.0,19.0,14.0,0.03773960751506981,-0.2684598657074374,5
18,6,1,18,22,html-slider-response,22,106416,3047.0,17.0,0.3,question_agency,question_agency_line,-13.0,8.0,6.0,17.0,3.0,-0.05590241686686137,-0.44331149825955657,1
19,6,1,19,77,html-slider-response,77,365154,2893.0,39.0,0.3,question_agency,question_agency_line,9.0,6.0,7.0,30.0,7.0,-0.19094311513426768,-0.25524189637325073,2
16,6,1,16,96,html-slider-response,96,528724,2511.0,13.0,0.3,question_agency,question_agency_line,-17.0,7.0,9.0,22.0,12.0,-0.16837677826429048,0.046703742156634656,3
15,6,1,15,145,html-slider-response,145,804371,2339.0,66.0,0.3,question_agency,question_agency_line,36.0,6.0,8.0,19.0,15.0,0.0025025956211656786,-0.2513797821642754,4
17,6,1,17,185,html-slider-response,185,956446,2200.0,7.0,0.3,question_agency,question_agency_line,-23.0,6.0,5.0,5.0,2.0,0.0873826931922166,-0.4304513842191337,5
22,6,1,22,28,html-slider-response,28,130249,3379.0,19.0,0.4,question_agency,question_agency_line,-21.0,8.0,6.0,20.0,24.0,-0.0005660716772562486,-0.2838017972046539,1
24,6,1,24,68,html-slider-response,68,297313,2304.0,5.0,0.4,question_agency,question_agency_line,-35.0,8.0,8.0,7.0,4.0,0.24868085116588926,-0.5115396819423748,2
23,6,1,23,108,html-slider-response,108,579281,3986.0,20.0,0.4,question_agency,question_agency_line,-20.0,6.0,6.0,29.0,30.0,0.14487746721854114,0.006902467909383363,3
20,6,1,20,139,html-slider-response,139,775260,3260.0,67.0,0.4,question_agency,question_agency_line,27.0,6.0,8.0,41.0,35.0,0.019305706433235814,-0.13059146349178843,4
21,6,1,21,164,html-slider-response,164,873923,1554.0,11.0,0.4,question_agency,question_agency_line,-29.0,7.0,10.0,22.0,21.0,-0.35382892765959073,-0.02164130758465465,5
28,6,1,28,31,html-slider-response,31,144166,4888.0,44.0,0.5,question_agency,question_agency_line,-6.0,8.0,8.0,6.0,10.0,-0.06590428020141027,-0.13878387773848705,1
27,6,1,27,56,html-slider-response,56,242455,2772.0,25.0,0.5,question_agency,question_agency_line,-25.0,6.0,5.0,10.0,10.0,0.32865432048140525,0.4264605602594345,2
26,6,1,26,90,html-slider-response,90,505851,2259.0,75.0,0.5,question_agency,question_agency_line,25.0,7.0,9.0,17.0,15.0,-0.1998273370219636,-0.21470724126381865,3
25,6,1,25,127,html-slider-response,127,726082,5339.0,35.0,0.5,question_agency,question_agency_line,-15.0,5.0,8.0,33.0,32.0,-0.27505624381810356,0.10265510136658679,4
29,6,1,29,182,html-slider-response,182,945235,1926.0,16.0,0.5,question_agency,question_agency_line,-34.0,4.0,6.0,43.0,36.0,-0.1910764421249906,-0.15489497628194598,5
33,6,1,33,25,html-slider-response,25,117862,2412.0,71.0,0.6,question_agency,question_agency_line,11.0,5.0,7.0,33.0,22.0,0.05663654199598738,0.0002039328424029606,1
32,6,1,32,59,html-slider-response,59,263499,12027.0,45.0,0.6,question_agency,question_agency_line,-15.0,9.0,7.0,36.0,30.0,-0.012518861709152208,-0.2887919117300879,2
34,6,1,34,114,html-slider-response,114,608894,4715.0,78.0,0.6,question_agency,question_agency_line,18.0,6.0,8.0,50.0,38.0,0.011118197068303418,-0.11730204977048898,3
30,6,1,30,151,html-slider-response,151,826631,2622.0,90.0,0.6,question_agency,question_agency_line,30.0,5.0,8.0,49.0,49.0,0.03157148683333848,-0.03468194581390653,4
31,6,1,31,188,html-slider-response,188,969105,3643.0,46.0,0.6,question_agency,question_agency_line,-14.0,5.0,6.0,15.0,13.0,0.3535464754060977,-0.1960238577568435,5
39,6,1,39,52,html-slider-response,52,227417,2184.0,83.0,0.7,question_agency,question_agency_line,13.0,8.0,8.0,62.0,41.0,0.06668562997714955,-0.19884055994183622,1
38,6,1,38,86,html-slider-response,86,404005,4280.0,58.0,0.7,question_agency,question_agency_line,-12.0,6.0,8.0,30.0,26.0,0.002867889852691669,0.13674722175191703,2
36,6,1,36,99,html-slider-response,99,541168,3428.0,49.0,0.7,question_agency,question_agency_line,-21.0,7.0,7.0,28.0,27.0,0.02291775638012341,-0.17098415792686542,3
37,6,1,37,136,html-slider-response,136,762992,3299.0,88.0,0.7,question_agency,question_agency_line,18.0,4.0,4.0,39.0,36.0,0.032484579610999036,0.02145548063988381,4
35,6,1,35,176,html-slider-response,176,921913,2982.0,46.0,0.7,question_agency,question_agency_line,-24.0,6.0,6.0,38.0,42.0,-0.11060911233466546,0.02986518078332311,5
40,6,1,40,43,html-slider-response,43,193477,4871.0,49.0,0.8,question_agency,question_agency_line,-31.0,8.0,7.0,22.0,14.0,0.001488828052292641,-0.20309223794254777,1
43,6,1,43,80,html-slider-response,80,379033,4855.0,38.0,0.8,question_agency,question_agency_line,-42.0,7.0,7.0,36.0,28.0,0.04976438588928048,-0.00943556174209088,2
42,6,1,42,120,html-slider-response,120,641436,2538.0,87.0,0.8,question_agency,question_agency_line,7.0,7.0,8.0,41.0,40.0,-0.18256574017603036,0.06022897826605546,3
44,6,1,44,133,html-slider-response,133,750680,4772.0,70.0,0.8,question_agency,question_agency_line,-10.0,8.0,7.0,40.0,32.0,-0.09739629189599826,0.10524408172716265,4
41,6,1,41,161,html-slider-response,161,863355,4183.0,56.0,0.8,question_agency,question_agency_line,-24.0,8.0,8.0,43.0,44.0,-0.11423515239990219,0.04810879035112655,5
46,6,1,46,49,html-slider-response,49,216212,2205.0,82.0,0.9,question_agency,question_agency_line,-8.0,6.0,7.0,49.0,41.0,0.053378128085040576,-0.013649272089954057,1
45,6,1,45,83,html-slider-response,83,390712,2665.0,75.0,0.9,question_agency,question_agency_line,-15.0,6.0,6.0,41.0,32.0,0.004541908023866892,0.1576848735160497,2
48,6,1,48,111,html-slider-response,111,595168,6877.0,62.0,0.9,question_agency,question_agency_line,-28.0,4.0,6.0,32.0,29.0,0.07589408726125683,-0.12806913371869655,3
49,6,1,49,124,html-slider-response,124,711732,2776.0,98.0,0.9,question_agency,question_agency_line,8.0,10.0,7.0,51.0,50.0,0.058949037827711846,-0.09357435833480751,4
47,6,1,47,173,html-slider-response,173,909925,2218.0,81.0,0.9,question_agency,question_agency_line,-9.0,7.0,6.0,23.0,27.0,-0.5606392045689396,-0.0033014079763746063,5
52,6,1,52,34,html-slider-response,34,156111,2935.0,100.0,1.0,question_agency,question_agency_line,0.0,6.0,5.0,20.0,28.0,-0.48637484118764873,-0.10986872295586608,1
53,6,1,53,71,html-slider-response,71,325474,19134.0,84.0,1.0,question_agency,question_agency_line,-16.0,5.0,6.0,11.0,14.0,0.15615296295281852,-0.10248162186232121,2
54,6,1,54,105,html-slider-response,105,566288,4798.0,75.0,1.0,question_agency,question_agency_line,-25.0,7.0,8.0,63.0,52.0,0.012828501719429442,-0.0663644690121815,3
50,6,1,50,148,html-slider-response,148,814975,1853.0,100.0,1.0,question_agency,question_agency_line,0.0,4.0,7.0,47.0,46.0,-0.07583524875338686,-0.00026997242811120116,4
51,6,1,51,170,html-slider-response,170,898692,3790.0,17.0,1.0,question_agency,question_agency_line,-83.0,4.0,5.0,33.0,29.0,0.05880890264094881,-0.008024937450805743,5
4,7,1,4,43,html-slider-response,43,208100,4527.0,0.0,0.0,question_agency,question_agency_line,0.0,6.0,5.0,24.0,14.0,-0.10002553124422907,-0.3109762556760749,1
0,7,1,0,77,html-slider-response,77,367582,3780.0,0.0,0.0,question_agency,question_agency_line,0.0,6.0,6.0,4.0,18.0,0.01332620857724224,0.011764550565787306,2
1,7,1,1,93,html-slider-response,93,433938,3437.0,0.0,0.0,question_agency,question_agency_line,0.0,6.0,6.0,31.0,8.0,-0.09466330784988185,0.17649666577302306,3
3,7,1,3,154,html-slider-response,154,733495,4403.0,0.0,0.0,question_agency,question_agency_line,0.0,6.0,8.0,0.0,27.0,0.0,0.030239512314378957,4
2,7,1,2,161,html-slider-response,161,765148,5542.0,6.0,0.0,question_agency,question_agency_line,6.0,8.0,7.0,29.0,0.0,0.24125680511479491,0.0,5
9,7,1,9,34,html-slider-response,34,168541,3910.0,0.0,0.1,question_agency,question_agency_line,-10.0,5.0,5.0,11.0,14.0,-0.34345498101204375,0.28115187440992123,1
7,7,1,7,83,html-slider-response,83,392791,3472.0,0.0,0.1,question_agency,question_agency_line,-10.0,5.0,7.0,11.0,10.0,-0.1864615651146116,-0.04903551656687826,2
5,7,1,5,90,html-slider-response,90,421487,5184.0,4.0,0.1,question_agency,question_agency_line,-6.0,8.0,7.0,6.0,4.0,0.08745449182413194,-0.1665892524093308,3
6,7,1,6,127,html-slider-response,127,602640,8038.0,0.0,0.1,question_agency,question_agency_line,-10.0,7.0,6.0,26.0,6.0,0.15866645437479276,0.15682732709354233,4
8,7,1,8,188,html-slider-response,188,883540,5339.0,0.0,0.1,question_agency,question_agency_line,-10.0,4.0,5.0,15.0,6.0,-0.06442455199205015,-0.15747903248239586,5
10,7,1,10,52,html-slider-response,52,252730,7147.0,1.0,0.2,question_agency,question_agency_line,-19.0,6.0,7.0,11.0,8.0,-0.016333626419649593,0.2916903719863578,1
12,7,1,12,59,html-slider-response,59,286049,5852.0,0.0,0.2,question_agency,question_agency_line,-20.0,5.0,9.0,16.0,2.0,0.018032576356338915,0.33746759783395464,2
11,7,1,11,96,html-slider-response,96,449646,6692.0,2.0,0.2,question_agency,question_agency_line,-18.0,8.0,6.0,11.0,32.0,-0.1747498988057427,-0.2820477696185461,3
14,7,1,14,145,html-slider-response,145,691752,4487.0,3.0,0.2,question_agency,question_agency_line,-17.0,8.0,8.0,12.0,11.0,0.07762323339985237,0.35873023146256044,4
13,7,1,13,179,html-slider-response,179,841743,3657.0,0.0,0.2,question_agency,question_agency_line,-20.0,7.0,9.0,4.0,25.0,-0.08305801663804513,-0.0881170616126073,5
19,7,1,19,25,html-slider-response,25,124746,4233.0,9.0,0.3,question_agency,question_agency_line,-21.0,5.0,7.0,10.0,10.0,-0.08968568207866495,0.25751913254429487,1
16,7,1,16,86,html-slider-response,86,405535,3737.0,50.0,0.3,question_agency,question_agency_line,20.0,2.0,2.0,6.0,5.0,-0.007272847315701167,0.1391067492835958,2
18,7,1,18,105,html-slider-response,105,497740,5021.0,24.0,0.3,question_agency,question_agency_line,-6.0,7.0,7.0,9.0,18.0,0.182142281943208,-0.02469930582839623,3
17,7,1,17,142,html-slider-response,142,678254,5131.0,8.0,0.3,question_agency,question_agency_line,-22.0,7.0,2.0,5.0,16.0,0.23207002589350725,-0.0879315614367883,4
15,7,1,15,182,html-slider-response,182,856056,5305.0,0.0,0.3,question_agency,question_agency_line,-30.0,7.0,8.0,14.0,4.0,-0.18664042010642762,-0.18413088205484535,5
22,7,1,22,37,html-slider-response,37,181920,4371.0,9.0,0.4,question_agency,question_agency_line,-31.0,5.0,7.0,10.0,9.0,-0.05308472767552255,0.1963788876821098,1
21,7,1,21,68,html-slider-response,68,328349,6588.0,7.0,0.4,question_agency,question_agency_line,-33.0,7.0,8.0,20.0,4.0,-0.20680642601188157,0.008112703729593712,2
24,7,1,24,108,html-slider-response,108,513968,7220.0,16.0,0.4,question_agency,question_agency_line,-24.0,7.0,4.0,4.0,12.0,-0.025002373019737907,-0.16025356777501215,3
23,7,1,23,136,html-slider-response,136,644688,4914.0,16.0,0.4,question_agency,question_agency_line,-24.0,8.0,3.0,7.0,5.0,-0.10323172813616242,0.0010658791209549937,4
20,7,1,20,173,html-slider-response,173,816668,4477.0,4.0,0.4,question_agency,question_agency_line,-36.0,8.0,8.0,6.0,7.0,-0.009907574102557404,0.2683490780160994,5
27,7,1,27,40,html-slider-response,40,194565,3637.0,42.0,0.5,question_agency,question_agency_line,-8.0,7.0,7.0,9.0,7.0,0.39371181289082247,0.3505462778564929,1
29,7,1,29,80,html-slider-response,80,380306,3704.0,23.0,0.5,question_agency,question_agency_line,-27.0,4.0,5.0,4.0,3.0,0.26443274048092724,0.09877181618252247,2
28,7,1,28,120,html-slider-response,120,570408,4542.0,60.0,0.5,question_agency,question_agency_line,10.0,5.0,5.0,7.0,10.0,0.47432701076255795,0.27678256211890473,3
26,7,1,26,151,html-slider-response,151,720072,4969.0,42.0,0.5,question_agency,question_agency_line,-8.0,9.0,5.0,4.0,8.0,0.29942957396616715,-0.21741380367797533,4
25,7,1,25,158,html-slider-response,158,750590,5066.0,21.0,0.5,question_agency,question_agency_line,-29.0,7.0,4.0,6.0,6.0,-0.09174891734892138,-0.20199033943651182,5
30,7,1,30,28,html-slider-response,28,141291,7532.0,25.0,0.6,question_agency,question_agency_line,-35.0,10.0,10.0,11.0,8.0,0.050391169869309256,0.23873254021370685,1
32,7,1,32,56,html-slider-response,56,271181,6138.0,30.0,0.6,question_agency,question_agency_line,-30.0,9.0,7.0,7.0,5.0,0.2646931507951581,0.5462175748722973,2
33,7,1,33,99,html-slider-response,99,469909,11256.0,44.0,0.6,question_agency,question_agency_line,-16.0,5.0,8.0,4.0,7.0,-0.0009549783492695709,-0.036675383951479554,3
34,7,1,34,130,html-slider-response,130,617343,5689.0,31.0,0.6,question_agency,question_agency_line,-29.0,5.0,8.0,6.0,8.0,-0.46715533384623925,0.39731940140541994,4
31,7,1,31,164,html-slider-response,164,777527,3370.0,42.0,0.6,question_agency,question_agency_line,-18.0,6.0,5.0,5.0,2.0,-0.2933761575958094,0.4702466342262345,5
36,7,1,36,49,html-slider-response,49,236575,6024.0,48.0,0.7,question_agency,question_agency_line,-22.0,7.0,5.0,6.0,5.0,-0.22198187076019024,-0.33561592039707877,1
39,7,1,39,74,html-slider-response,74,354784,3383.0,22.0,0.7,question_agency,question_agency_line,-48.0,6.0,8.0,9.0,8.0,0.05859729202219824,0.08003522662733382,2
35,7,1,35,114,html-slider-response,114,541651,4963.0,77.0,0.7,question_agency,question_agency_line,7.0,7.0,8.0,5.0,8.0,0.3950491836624581,0.1546091314645935,3
37,7,1,37,124,html-slider-response,124,585595,4361.0,60.0,0.7,question_agency,question_agency_line,-10.0,6.0,5.0,8.0,7.0,-0.011880844850093265,-0.22030480289136523,4
38,7,1,38,185,html-slider-response,185,869193,4130.0,48.0,0.7,question_agency,question_agency_line,-22.0,7.0,6.0,5.0,9.0,0.02800885471581788,0.0911453320352964,5
44,7,1,44,31,html-slider-response,31,155619,5315.0,54.0,0.8,question_agency,question_agency_line,-26.0,4.0,6.0,6.0,13.0,0.2237596241337819,-0.27142297248402886,1
43,7,1,43,71,html-slider-response,71,342383,5024.0,15.0,0.8,question_agency,question_agency_line,-65.0,7.0,7.0,9.0,9.0,0.09992716305613984,-0.08816462114089132,2
40,7,1,40,111,html-slider-response,111,527678,4691.0,72.0,0.8,question_agency,question_agency_line,-8.0,7.0,6.0,12.0,12.0,0.15487815189061505,0.09139865908091037,3
42,7,1,42,148,html-slider-response,148,706090,5333.0,64.0,0.8,question_agency,question_agency_line,-16.0,8.0,6.0,7.0,9.0,0.6208802243232137,-0.08190467671946229,4
41,7,1,41,176,html-slider-response,176,829078,3399.0,75.0,0.8,question_agency,question_agency_line,-5.0,9.0,7.0,7.0,4.0,0.6022373745316181,-0.39276739502632046,5
49,7,1,49,46,html-slider-response,46,221544,4433.0,97.0,0.9,question_agency,question_agency_line,7.0,5.0,6.0,12.0,11.0,-0.05347914829167313,-0.13370524274774556,1
47,7,1,47,62,html-slider-response,62,298821,3764.0,100.0,0.9,question_agency,question_agency_line,10.0,7.0,9.0,10.0,10.0,0.02319896311987153,0.07161829473759981,2
45,7,1,45,102,html-slider-response,102,483706,4788.0,89.0,0.9,question_agency,question_agency_line,-1.0,10.0,5.0,7.0,9.0,-0.24566388707815753,-0.012944639489155325,3
46,7,1,46,139,html-slider-response,139,664114,10416.0,15.0,0.9,question_agency,question_agency_line,-75.0,8.0,3.0,6.0,9.0,-0.010156956403025571,0.15491238802550203,4
48,7,1,48,167,html-slider-response,167,789850,3309.0,88.0,0.9,question_agency,question_agency_line,-2.0,8.0,7.0,6.0,11.0,-0.031232318440859035,-0.17944710663290125,5
54,7,1,54,22,html-slider-response,22,111498,7456.0,100.0,1.0,question_agency,question_agency_line,0.0,9.0,7.0,8.0,7.0,0.31777497747101097,0.32746907811270753,1
52,7,1,52,65,html-slider-response,65,312750,4915.0,100.0,1.0,question_agency,question_agency_line,0.0,6.0,7.0,8.0,9.0,-0.020209275869480316,-0.007997952038934709,2
51,7,1,51,117,html-slider-response,117,556853,6195.0,100.0,1.0,question_agency,question_agency_line,0.0,8.0,7.0,12.0,11.0,-0.17538894534302168,0.3260021384396903,3
50,7,1,50,133,html-slider-response,133,630756,4399.0,99.0,1.0,question_agency,question_agency_line,-1.0,8.0,6.0,12.0,13.0,0.1466203021574775,-0.007975201383480847,4
53,7,1,53,170,html-slider-response,170,803186,4326.0,100.0,1.0,question_agency,question_agency_line,0.0,9.0,7.0,3.0,6.0,-0.05742454339854817,0.25150511526732255,5
3,8,1,3,40,html-slider-response,40,163325,2931.0,13.0,0.0,question_agency,question_agency_line,13.0,7.0,5.0,16.0,10.0,0.13575594094122329,-0.05500690988835117,1
4,8,1,4,68,html-slider-response,68,275396,2518.0,13.0,0.0,question_agency,question_agency_line,13.0,3.0,5.0,8.0,2.0,0.26849949248338423,-0.21121034786690035,2
0,8,1,0,93,html-slider-response,93,370764,2973.0,5.0,0.0,question_agency,question_agency_line,5.0,7.0,6.0,16.0,6.0,-0.34071218843448364,-0.37165139242122297,3
2,8,1,2,154,html-slider-response,154,646949,2392.0,4.0,0.0,question_agency,question_agency_line,4.0,6.0,7.0,19.0,6.0,-0.16096770757163748,-0.31788060528017703,4
1,8,1,1,167,html-slider-response,167,706709,2590.0,10.0,0.0,question_agency,question_agency_line,10.0,6.0,6.0,14.0,0.0,-0.2944347771255496,0.0,5
9,8,1,9,52,html-slider-response,52,212509,2349.0,8.0,0.1,question_agency,question_agency_line,-2.0,7.0,9.0,14.0,6.0,-0.028061094504629788,0.40518779423597107,1
7,8,1,7,59,html-slider-response,59,239628,3071.0,14.0,0.1,question_agency,question_agency_line,4.0,7.0,9.0,15.0,12.0,0.0005737989978894871,0.006532488796055359,2
5,8,1,5,105,html-slider-response,105,420645,3396.0,24.0,0.1,question_agency,question_agency_line,14.0,6.0,7.0,5.0,8.0,-0.056450098677497715,-0.24629559077960392,3
8,8,1,8,130,html-slider-response,130,537597,3824.0,32.0,0.1,question_agency,question_agency_line,22.0,7.0,6.0,7.0,3.0,0.4427052355913713,0.21161893894206818,4
6,8,1,6,158,html-slider-response,158,672613,3930.0,17.0,0.1,question_agency,question_agency_line,7.0,10.0,8.0,16.0,3.0,-0.12918509046970114,-0.221514742416803,5
12,8,1,12,31,html-slider-response,31,128541,3177.0,24.0,0.2,question_agency,question_agency_line,4.0,10.0,9.0,11.0,2.0,-0.07371255369805975,-0.057021090586993915,1
14,8,1,14,74,html-slider-response,74,299493,2646.0,12.0,0.2,question_agency,question_agency_line,-8.0,9.0,7.0,6.0,26.0,-0.03393361124094139,-0.05132137868913998,2
10,8,1,10,111,html-slider-response,111,444965,3484.0,25.0,0.2,question_agency,question_agency_line,5.0,5.0,5.0,6.0,4.0,0.3405653148032156,-0.033632610053242445,3
11,8,1,11,139,html-slider-response,139,583693,3605.0,33.0,0.2,question_agency,question_agency_line,13.0,9.0,8.0,6.0,4.0,0.35404690378688886,-0.3076850083097409,4
13,8,1,13,173,html-slider-response,173,730461,2603.0,18.0,0.2,question_agency,question_agency_line,-2.0,5.0,11.0,8.0,1.0,-0.05752125075480124,0.005263606083692158,5
17,8,1,17,22,html-slider-response,22,91189,5141.0,35.0,0.3,question_agency,question_agency_line,5.0,5.0,7.0,10.0,8.0,0.024107963138063918,0.045976008535601756,1
19,8,1,19,71,html-slider-response,71,287831,3422.0,24.0,0.3,question_agency,question_agency_line,-6.0,6.0,5.0,12.0,9.0,-0.23973558738825865,-0.17005722822601171,2
16,8,1,16,117,html-slider-response,117,469501,2034.0,67.0,0.3,question_agency,question_agency_line,37.0,7.0,6.0,11.0,9.0,0.33544630028030503,0.08416466872044179,3
15,8,1,15,142,html-slider-response,142,597565,4863.0,27.0,0.3,question_agency,question_agency_line,-3.0,8.0,6.0,11.0,2.0,-0.248657750754827,-0.07534010616419932,4
18,8,1,18,188,html-slider-response,188,790094,2839.0,62.0,0.3,question_agency,question_agency_line,32.0,8.0,5.0,5.0,7.0,0.5177332484352024,0.09641523211711572,5
21,8,1,21,25,html-slider-response,25,103069,2865.0,33.0,0.4,question_agency,question_agency_line,-7.0,9.0,8.0,10.0,8.0,0.02635351426640162,0.14470724168051438,1
23,8,1,23,56,html-slider-response,56,227542,3181.0,36.0,0.4,question_agency,question_agency_line,-4.0,5.0,8.0,6.0,5.0,-0.23806482300398632,0.02443673503205981,2
24,8,1,24,102,html-slider-response,102,408237,3308.0,34.0,0.4,question_agency,question_agency_line,-6.0,7.0,5.0,11.0,6.0,0.05219355114045594,-0.21555917310936581,3
22,8,1,22,151,html-slider-response,151,635533,2856.0,71.0,0.4,question_agency,question_agency_line,31.0,5.0,6.0,8.0,2.0,-0.2538892937686962,-0.31418433205817015,4
20,8,1,20,179,html-slider-response,179,755037,3119.0,77.0,0.4,question_agency,question_agency_line,37.0,7.0,8.0,13.0,2.0,0.2970466907355182,0.12249562910281167,5
26,8,1,26,49,html-slider-response,49,201156,3473.0,36.0,0.5,question_agency,question_agency_line,-14.0,9.0,10.0,8.0,7.0,0.2820459019612521,0.21030397834893644,1
29,8,1,29,83,html-slider-response,83,334070,3365.0,67.0,0.5,question_agency,question_agency_line,17.0,7.0,9.0,7.0,6.0,-0.13397568984915795,-0.2286326297900297,2
27,8,1,27,114,html-slider-response,114,458453,4471.0,72.0,0.5,question_agency,question_agency_line,22.0,8.0,6.0,5.0,0.0,-0.13341464394058347,0.0,3
28,8,1,28,133,html-slider-response,133,553573,6969.0,66.0,0.5,question_agency,question_agency_line,16.0,8.0,5.0,9.0,4.0,-0.09965484959156365,-0.27938629721754077,4
25,8,1,25,176,html-slider-response,176,742901,3426.0,74.0,0.5,question_agency,question_agency_line,24.0,8.0,10.0,7.0,2.0,0.044510491992568124,0.19080707745372524,5
33,8,1,33,46,html-slider-response,46,188668,2903.0,63.0,0.6,question_agency,question_agency_line,3.0,4.0,6.0,5.0,5.0,0.13981374399852012,-0.2549960016124437,1
32,8,1,32,80,html-slider-response,80,321685,1773.0,60.0,0.6,question_agency,question_agency_line,0.0,7.0,5.0,8.0,8.0,0.13024425170189097,-0.6268749855389816,2
34,8,1,34,108,html-slider-response,108,432470,2808.0,67.0,0.6,question_agency,question_agency_line,7.0,8.0,8.0,12.0,3.0,0.35483686811738785,0.26918572804232405,3
31,8,1,31,124,html-slider-response,124,509909,3849.0,77.0,0.6,question_agency,question_agency_line,17.0,7.0,7.0,13.0,6.0,0.09609567453531175,-0.04470310794896398,4
30,8,1,30,185,html-slider-response,185,778245,2968.0,80.0,0.6,question_agency,question_agency_line,20.0,6.0,6.0,9.0,4.0,0.1570816140170687,-0.32989476643705834,5
39,8,1,39,28,html-slider-response,28,116349,4273.0,50.0,0.7,question_agency,question_agency_line,-20.0,5.0,3.0,14.0,5.0,0.04663387740233583,-0.39086174818311287,1
35,8,1,35,77,html-slider-response,77,310901,2385.0,84.0,0.7,question_agency,question_agency_line,14.0,7.0,4.0,12.0,13.0,-0.27013834864908665,-0.2555917949634504,2
36,8,1,36,99,html-slider-response,99,395909,3325.0,79.0,0.7,question_agency,question_agency_line,9.0,5.0,6.0,7.0,10.0,0.15408048035864927,-0.31284735342468795,3
38,8,1,38,136,html-slider-response,136,571069,8483.0,67.0,0.7,question_agency,question_agency_line,-3.0,8.0,7.0,9.0,5.0,0.18807676239581814,-0.17729695115548494,4
37,8,1,37,170,html-slider-response,170,718837,3113.0,81.0,0.7,question_agency,question_agency_line,11.0,4.0,4.0,4.0,5.0,-0.1250498241809296,0.22542310777775348,5
41,8,1,41,37,html-slider-response,37,151381,1908.0,65.0,0.8,question_agency,question_agency_line,-15.0,8.0,6.0,11.0,10.0,0.11619983426786917,-0.170328889746393,1
42,8,1,42,62,html-slider-response,62,252260,3627.0,69.0,0.8,question_agency,question_agency_line,-11.0,7.0,7.0,13.0,12.0,-0.17989431215369422,-0.03336808546060128,2
43,8,1,43,96,html-slider-response,96,383564,3789.0,85.0,0.8,question_agency,question_agency_line,5.0,5.0,5.0,9.0,6.0,-0.3688579049345228,-0.19964835355864022,3
44,8,1,44,148,html-slider-response,148,623653,4056.0,79.0,0.8,question_agency,question_agency_line,-1.0,7.0,5.0,8.0,6.0,-0.19720884874941347,-0.00749059028801039,4
40,8,1,40,182,html-slider-response,182,766253,2208.0,84.0,0.8,question_agency,question_agency_line,4.0,9.0,8.0,8.0,8.0,0.00825043765101818,0.3331407701427119,5
45,8,1,45,34,html-slider-response,34,140461,2910.0,64.0,0.9,question_agency,question_agency_line,-26.0,5.0,7.0,19.0,23.0,-0.2920219163422417,0.005496776862050173,1
47,8,1,47,86,html-slider-response,86,346116,3033.0,80.0,0.9,question_agency,question_agency_line,-10.0,3.0,8.0,7.0,6.0,0.07934290895897655,0.2546983253145716,2
49,8,1,49,90,html-slider-response,90,358773,1716.0,87.0,0.9,question_agency,question_agency_line,-3.0,6.0,6.0,14.0,14.0,-0.1131160685334883,-0.04431697421773719,3
48,8,1,48,127,html-slider-response,127,524757,5834.0,82.0,0.9,question_agency,question_agency_line,-8.0,9.0,6.0,11.0,12.0,-0.2868202091421367,-0.05910349954433127,4
46,8,1,46,164,html-slider-response,164,695110,2504.0,81.0,0.9,question_agency,question_agency_line,-9.0,5.0,8.0,15.0,12.0,0.04079555780958509,-0.14433833110227198,5
52,8,1,52,43,html-slider-response,43,176756,4417.0,100.0,1.0,question_agency,question_agency_line,0.0,6.0,8.0,16.0,13.0,-0.3831426258097203,-0.1537327437236138,1
53,8,1,53,65,html-slider-response,65,263869,2589.0,100.0,1.0,question_agency,question_agency_line,0.0,11.0,7.0,12.0,9.0,-0.08573266337026207,0.2713246295324134,2
54,8,1,54,120,html-slider-response,120,482061,3549.0,100.0,1.0,question_agency,question_agency_line,0.0,7.0,9.0,7.0,6.0,-0.07868694883577383,-0.04000840461588535,3
50,8,1,50,145,html-slider-response,145,610582,4000.0,80.0,1.0,question_agency,question_agency_line,-20.0,8.0,5.0,14.0,12.0,0.05980700940582342,0.07890436476323874,4
51,8,1,51,161,html-slider-response,161,683589,1965.0,93.0,1.0,question_agency,question_agency_line,-7.0,7.0,7.0,10.0,7.0,-0.4044463769357983,-0.2290005260482839,5
4,9,1,4,49,html-slider-response,49,404132,3975.0,0.0,0.0,question_agency,question_agency_line,0.0,6.0,8.0,28.0,32.0,-0.12535254582494995,-0.24945978309799277,1
3,9,1,3,68,html-slider-response,68,479247,2790.0,0.0,0.0,question_agency,question_agency_line,0.0,7.0,6.0,30.0,25.0,-0.10912100224291908,-0.11971958527755226,2
1,9,1,1,108,html-slider-response,108,645760,2569.0,0.0,0.0,question_agency,question_agency_line,0.0,6.0,7.0,14.0,57.0,-0.0797557296704423,-0.21292399993996636,3
0,9,1,0,124,html-slider-response,124,704922,2284.0,0.0,0.0,question_agency,question_agency_line,0.0,7.0,6.0,25.0,30.0,-0.23873392107739966,-0.21343362109459663,4
2,9,1,2,179,html-slider-response,179,925717,3116.0,0.0,0.0,question_agency,question_agency_line,0.0,11.0,9.0,25.0,26.0,-0.07707391353008539,0.017686467317396738,5
6,9,1,6,28,html-slider-response,28,309477,4242.0,3.0,0.1,question_agency,question_agency_line,-7.0,12.0,10.0,25.0,23.0,0.0317477254077753,-0.15375701515374354,1
7,9,1,7,83,html-slider-response,83,540976,3502.0,0.0,0.1,question_agency,question_agency_line,-10.0,7.0,6.0,28.0,30.0,-0.02148903692854275,-0.12123813706951418,2
5,9,1,5,117,html-slider-response,117,681091,2598.0,1.0,0.1,question_agency,question_agency_line,-9.0,6.0,6.0,29.0,28.0,8.170130700156787e-05,-0.17516772629477184,3
9,9,1,9,145,html-slider-response,145,793267,4627.0,11.0,0.1,question_agency,question_agency_line,1.0,4.0,5.0,18.0,23.0,0.21379123890366428,-0.04551172015937662,4
8,9,1,8,182,html-slider-response,182,938351,3629.0,0.0,0.1,question_agency,question_agency_line,-10.0,8.0,9.0,23.0,30.0,-0.17867916595506442,0.034511504312355265,5
13,9,1,13,37,html-slider-response,37,353069,5234.0,8.0,0.2,question_agency,question_agency_line,-12.0,5.0,7.0,28.0,28.0,-0.2151606216586245,-0.22751997937111726,1
11,9,1,11,86,html-slider-response,86,552458,2470.0,5.0,0.2,question_agency,question_agency_line,-15.0,7.0,8.0,20.0,29.0,0.19949028641027244,-0.27795439274222333,2
14,9,1,14,111,html-slider-response,111,656895,2131.0,11.0,0.2,question_agency,question_agency_line,-9.0,5.0,8.0,30.0,23.0,-0.2717016827232424,0.19685650050838366,3
10,9,1,10,151,html-slider-response,151,817078,3393.0,15.0,0.2,question_agency,question_agency_line,-5.0,7.0,8.0,22.0,26.0,-0.03646915551562028,0.060294888995029446,4
12,9,1,12,176,html-slider-response,176,913590,2562.0,1.0,0.2,question_agency,question_agency_line,-19.0,9.0,7.0,17.0,24.0,0.0038762901023705458,-0.10986582027356026,5
19,9,1,19,25,html-slider-response,25,296224,8933.0,13.0,0.3,question_agency,question_agency_line,-17.0,10.0,9.0,17.0,23.0,0.2198658929394941,-0.048378658241373856,1
17,9,1,17,74,html-slider-response,74,503020,2397.0,8.0,0.3,question_agency,question_agency_line,-22.0,7.0,9.0,24.0,27.0,-0.09118750683865429,0.04466840259399425,2
16,9,1,16,105,html-slider-response,105,634174,3086.0,11.0,0.3,question_agency,question_agency_line,-19.0,7.0,8.0,19.0,29.0,0.2650817510212805,-0.278308778145964,3
15,9,1,15,133,html-slider-response,133,744496,4561.0,15.0,0.3,question_agency,question_agency_line,-15.0,6.0,4.0,17.0,27.0,-0.11922028256827046,-0.34459484727544565,4
18,9,1,18,158,html-slider-response,158,841557,2280.0,12.0,0.3,question_agency,question_agency_line,-18.0,6.0,7.0,23.0,30.0,-0.1754940884359811,-0.23101464802887076,5
20,9,1,20,52,html-slider-response,52,416108,2971.0,10.0,0.4,question_agency,question_agency_line,-30.0,10.0,8.0,20.0,25.0,0.0019477294366404589,-0.08867304277423636,1
23,9,1,23,80,html-slider-response,80,528470,2754.0,10.0,0.4,question_agency,question_agency_line,-30.0,10.0,8.0,27.0,27.0,-0.11055279952142903,-0.2598699340925199,2
21,9,1,21,120,html-slider-response,120,692381,2282.0,59.0,0.4,question_agency,question_agency_line,19.0,5.0,9.0,20.0,21.0,0.02914010206608827,-0.05386461449721109,3
22,9,1,22,130,html-slider-response,130,730924,3078.0,12.0,0.4,question_agency,question_agency_line,-28.0,7.0,5.0,26.0,23.0,-0.23646520859531917,-0.19354951595384445,4
24,9,1,24,164,html-slider-response,164,864442,2587.0,23.0,0.4,question_agency,question_agency_line,-17.0,8.0,9.0,21.0,22.0,-0.09858079965117451,-0.06131436826701962,5
26,9,1,26,34,html-slider-response,34,338829,4877.0,56.0,0.5,question_agency,question_agency_line,6.0,5.0,5.0,20.0,23.0,-0.24065065731313862,-0.5659821083751039,1
29,9,1,29,77,html-slider-response,77,516700,4672.0,15.0,0.5,question_agency,question_agency_line,-35.0,8.0,6.0,19.0,25.0,-0.04338061177642307,-0.047475280928342786,2
27,9,1,27,114,html-slider-response,114,669533,3630.0,28.0,0.5,question_agency,question_agency_line,-22.0,7.0,6.0,28.0,17.0,-0.09466492057116219,-0.15454065831905342,3
25,9,1,25,139,html-slider-response,139,767378,2699.0,41.0,0.5,question_agency,question_agency_line,-9.0,5.0,9.0,22.0,21.0,-0.13074224927051817,-0.27203349781860536,4
28,9,1,28,161,html-slider-response,161,852846,2279.0,14.0,0.5,question_agency,question_agency_line,-36.0,6.0,5.0,24.0,21.0,-0.12211038995231788,-0.01485936486992216,5
34,9,1,34,31,html-slider-response,31,324947,6465.0,61.0,0.6,question_agency,question_agency_line,1.0,5.0,8.0,23.0,32.0,-0.28972538002420983,-0.054249481144943726,1
32,9,1,32,71,html-slider-response,71,491604,3353.0,38.0,0.6,question_agency,question_agency_line,-22.0,9.0,9.0,21.0,23.0,-0.18411035288288335,-0.08098160256100174,2
30,9,1,30,93,html-slider-response,93,583913,9175.0,12.0,0.6,question_agency,question_agency_line,-48.0,10.0,10.0,16.0,26.0,-0.3681251616148986,-0.08440109216430822,3
31,9,1,31,136,html-slider-response,136,755668,2160.0,60.0,0.6,question_agency,question_agency_line,0.0,6.0,10.0,21.0,27.0,0.0839540918583818,0.12328999435735565,4
33,9,1,33,185,html-slider-response,185,952961,5600.0,41.0,0.6,question_agency,question_agency_line,-19.0,6.0,9.0,16.0,32.0,-0.49900355435184957,-0.1165353290866692,5
35,9,1,35,22,html-slider-response,22,278285,11123.0,75.0,0.7,question_agency,question_agency_line,5.0,9.0,8.0,16.0,23.0,-0.03862928747670448,-0.022874500369601373,1
38,9,1,38,56,html-slider-response,56,430254,2498.0,54.0,0.7,question_agency,question_agency_line,-16.0,6.0,7.0,23.0,22.0,-0.08839360123497508,0.033276929558448,2
37,9,1,37,96,html-slider-response,96,597552,4631.0,79.0,0.7,question_agency,question_agency_line,9.0,5.0,6.0,15.0,17.0,0.24821089461527054,-0.1923926927755803,3
39,9,1,39,127,html-slider-response,127,718841,4911.0,63.0,0.7,question_agency,question_agency_line,-7.0,7.0,7.0,14.0,19.0,-0.10886664987420624,-0.14432151206818927,4
36,9,1,36,188,html-slider-response,188,967511,5530.0,70.0,0.7,question_agency,question_agency_line,0.0,7.0,8.0,19.0,24.0,0.08359484402925428,0.03613436710784878,5
40,9,1,40,40,html-slider-response,40,365508,3427.0,98.0,0.8,question_agency,question_agency_line,18.0,9.0,8.0,19.0,25.0,0.2769513255923251,-0.09027700686498094,1
42,9,1,42,59,html-slider-response,59,443645,4383.0,80.0,0.8,question_agency,question_agency_line,0.0,9.0,8.0,12.0,15.0,0.37991214211823626,-0.014626809601443946,2
44,9,1,44,99,html-slider-response,99,610501,3943.0,82.0,0.8,question_agency,question_agency_line,2.0,9.0,11.0,14.0,21.0,0.1750849770334281,0.007257844682304994,3
43,9,1,43,148,html-slider-response,148,804673,2394.0,90.0,0.8,question_agency,question_agency_line,10.0,7.0,9.0,16.0,20.0,0.06692069291744826,-0.3036062025485584,4
41,9,1,41,173,html-slider-response,173,902016,3327.0,91.0,0.8,question_agency,question_agency_line,11.0,8.0,8.0,16.0,33.0,0.09541464469374888,0.03316081769852205,5
49,9,1,49,43,html-slider-response,43,378407,3886.0,98.0,0.9,question_agency,question_agency_line,8.0,7.0,8.0,21.0,21.0,-0.15679010603741822,-0.05626398860120388,1
46,9,1,46,62,html-slider-response,62,455017,2355.0,96.0,0.9,question_agency,question_agency_line,6.0,9.0,7.0,15.0,18.0,-0.191866967475918,0.036522352818020194,2
47,9,1,47,90,html-slider-response,90,565728,2962.0,99.0,0.9,question_agency,question_agency_line,9.0,8.0,8.0,15.0,29.0,-0.02227218040388567,0.016552741857049205,3
45,9,1,45,154,html-slider-response,154,829067,2978.0,98.0,0.9,question_agency,question_agency_line,8.0,8.0,6.0,8.0,21.0,0.14488716326011666,-0.11352847287479101,4
48,9,1,48,170,html-slider-response,170,889679,4179.0,96.0,0.9,question_agency,question_agency_line,6.0,7.0,7.0,10.0,21.0,-0.40107652816158107,-0.09701974852837819,5
52,9,1,52,46,html-slider-response,46,391154,3740.0,100.0,1.0,question_agency,question_agency_line,0.0,7.0,5.0,19.0,25.0,0.2230844526920612,0.03304842627443018,1
53,9,1,53,65,html-slider-response,65,467447,3425.0,100.0,1.0,question_agency,question_agency_line,0.0,8.0,9.0,22.0,23.0,-0.14297328749813923,-0.37781959773022494,2
54,9,1,54,102,html-slider-response,102,622076,2564.0,100.0,1.0,question_agency,question_agency_line,0.0,6.0,4.0,19.0,26.0,0.0509950422407362,-0.054814783690589855,3
51,9,1,51,142,html-slider-response,142,779631,3245.0,100.0,1.0,question_agency,question_agency_line,0.0,6.0,6.0,19.0,24.0,0.21857472788405818,0.0869769633758215,4
50,9,1,50,167,html-slider-response,167,876491,3038.0,100.0,1.0,question_agency,question_agency_line,0.0,6.0,5.0,22.0,29.0,0.19107764265967145,-0.21009483199105553,5
0,10,1,0,22,html-slider-response,22,79534,4435.0,0.0,0.0,question_agency,question_agency_line,0.0,6.0,7.0,4.0,11.0,-0.37843212397136267,0.5601305182797692,1
4,10,1,4,68,html-slider-response,68,265443,2493.0,28.0,0.0,question_agency,question_agency_line,28.0,5.0,6.0,8.0,18.0,0.2456285164571707,0.08340597525323322,2
1,10,1,1,108,html-slider-response,108,422437,2634.0,0.0,0.0,question_agency,question_agency_line,0.0,8.0,5.0,3.0,8.0,0.13846067928879763,0.063502144291034,3
2,10,1,2,133,html-slider-response,133,525293,2109.0,0.0,0.0,question_agency,question_agency_line,0.0,10.0,11.0,8.0,10.0,-0.20809927649288193,-0.20781702338970018,4
3,10,1,3,170,html-slider-response,170,672946,2542.0,7.0,0.0,question_agency,question_agency_line,7.0,10.0,11.0,7.0,11.0,0.09587403676708865,0.1390074247296785,5
5,10,1,5,31,html-slider-response,31,122408,3074.0,21.0,0.1,question_agency,question_agency_line,11.0,8.0,3.0,8.0,12.0,0.2153935398821221,0.20572764486569545,1
8,10,1,8,83,html-slider-response,83,322268,2139.0,31.0,0.1,question_agency,question_agency_line,21.0,8.0,6.0,6.0,15.0,0.060479448254208104,0.4943008859859302,2
7,10,1,7,99,html-slider-response,99,387021,2572.0,0.0,0.1,question_agency,question_agency_line,-10.0,6.0,8.0,7.0,5.0,0.292152519084123,0.41798003933387706,3
9,10,1,9,148,html-slider-response,148,584899,3577.0,30.0,0.1,question_agency,question_agency_line,20.0,7.0,4.0,8.0,12.0,-0.17539267878512138,-0.2880342100317405,4
6,10,1,6,167,html-slider-response,167,661397,2690.0,18.0,0.1,question_agency,question_agency_line,8.0,8.0,4.0,4.0,17.0,0.35153630421253296,-0.15018670504633302,5
13,10,1,13,52,html-slider-response,52,206452,2995.0,6.0,0.2,question_agency,question_agency_line,-14.0,4.0,7.0,5.0,11.0,-0.1754514888886417,-0.26776028774969474,1
10,10,1,10,77,html-slider-response,77,300297,2987.0,0.0,0.2,question_agency,question_agency_line,-20.0,9.0,10.0,4.0,7.0,0.26374206244069326,0.45009457192414243,2
12,10,1,12,117,html-slider-response,117,456663,2181.0,17.0,0.2,question_agency,question_agency_line,-3.0,9.0,8.0,5.0,6.0,-0.5729626599873451,0.24839346885642338,3
11,10,1,11,151,html-slider-response,151,596244,2340.0,19.0,0.2,question_agency,question_agency_line,-1.0,6.0,5.0,4.0,6.0,0.21098574041543217,-0.2022450763029012,4
14,10,1,14,158,html-slider-response,158,624627,5358.0,60.0,0.2,question_agency,question_agency_line,40.0,4.0,6.0,8.0,10.0,0.45084085547136554,0.12078330653236671,5
17,10,1,17,49,html-slider-response,49,194449,2403.0,48.0,0.3,question_agency,question_agency_line,18.0,10.0,8.0,5.0,5.0,0.34924630662199235,0.3503475709370306,1
16,10,1,16,65,html-slider-response,65,253945,2005.0,21.0,0.3,question_agency,question_agency_line,-9.0,5.0,6.0,13.0,10.0,0.3841165084554616,-0.21917128990717843,2
19,10,1,19,102,html-slider-response,102,399991,3965.0,0.0,0.3,question_agency,question_agency_line,-30.0,9.0,5.0,15.0,4.0,0.13706569642368097,0.2462200492445392,3
18,10,1,18,127,html-slider-response,127,501803,5281.0,22.0,0.3,question_agency,question_agency_line,-8.0,6.0,4.0,6.0,8.0,0.20033764196897533,-0.08023466448808755,4
15,10,1,15,179,html-slider-response,179,708334,1833.0,32.0,0.3,question_agency,question_agency_line,2.0,7.0,6.0,12.0,15.0,0.1232453527816971,0.018879528823696014,5
22,10,1,22,25,html-slider-response,25,98489,9945.0,50.0,0.4,question_agency,question_agency_line,10.0,7.0,6.0,3.0,5.0,0.2067366908624982,0.2355548805897097,1
21,10,1,21,71,html-slider-response,71,276061,1609.0,30.0,0.4,question_agency,question_agency_line,-10.0,5.0,8.0,6.0,3.0,0.24534183734919457,-0.06961364486542877,2
20,10,1,20,114,html-slider-response,114,445475,2282.0,39.0,0.4,question_agency,question_agency_line,-1.0,7.0,6.0,6.0,7.0,0.1380444483820254,-0.18072720959927768,3
23,10,1,23,145,html-slider-response,145,572317,2794.0,45.0,0.4,question_agency,question_agency_line,5.0,7.0,9.0,5.0,10.0,0.37915098741942843,0.43423594073310606,4
24,10,1,24,182,html-slider-response,182,719717,2376.0,15.0,0.4,question_agency,question_agency_line,-25.0,7.0,6.0,3.0,17.0,-0.24604438928573732,-0.16913065167586602,5
28,10,1,28,34,html-slider-response,34,134953,3538.0,40.0,0.5,question_agency,question_agency_line,-10.0,7.0,10.0,3.0,6.0,0.26128220258724655,-0.37703689354994335,1
27,10,1,27,80,html-slider-response,80,311122,1817.0,63.0,0.5,question_agency,question_agency_line,13.0,6.0,4.0,7.0,6.0,0.1495613355837557,0.41833382644723943,2
25,10,1,25,120,html-slider-response,120,467256,1587.0,50.0,0.5,question_agency,question_agency_line,0.0,6.0,9.0,3.0,7.0,0.474272817021355,0.06691262515923316,3
29,10,1,29,139,html-slider-response,139,548671,2898.0,61.0,0.5,question_agency,question_agency_line,11.0,7.0,9.0,3.0,4.0,0.3121619795193598,-0.27555662570810724,4
26,10,1,26,161,html-slider-response,161,636801,3168.0,48.0,0.5,question_agency,question_agency_line,-2.0,7.0,8.0,4.0,7.0,-0.14596268634116008,-0.1269172932252148,5
34,10,1,34,40,html-slider-response,40,161112,4826.0,83.0,0.6,question_agency,question_agency_line,23.0,11.0,7.0,4.0,8.0,-0.21725537446408333,-0.03709741046572017,1
33,10,1,33,86,html-slider-response,86,340731,9456.0,50.0,0.6,question_agency,question_agency_line,-10.0,7.0,10.0,10.0,6.0,-0.13793814326369777,0.20588544184567753,2
32,10,1,32,105,html-slider-response,105,410797,1801.0,92.0,0.6,question_agency,question_agency_line,32.0,9.0,7.0,8.0,14.0,0.47606182147723586,0.21702069950691902,3
30,10,1,30,130,html-slider-response,130,514178,3370.0,37.0,0.6,question_agency,question_agency_line,-23.0,6.0,6.0,5.0,8.0,0.11824826117060594,-0.04727819230326997,4
31,10,1,31,164,html-slider-response,164,649702,3896.0,58.0,0.6,question_agency,question_agency_line,-2.0,7.0,3.0,7.0,9.0,0.1844860546876764,0.04928924931563037,5
36,10,1,36,37,html-slider-response,37,147277,3316.0,69.0,0.7,question_agency,question_agency_line,-1.0,6.0,9.0,6.0,7.0,-0.029946780954467556,0.5269534714105645,1
38,10,1,38,62,html-slider-response,62,242933,2972.0,87.0,0.7,question_agency,question_agency_line,17.0,8.0,7.0,8.0,10.0,0.032665270468833905,0.20997843594672763,2
39,10,1,39,111,html-slider-response,111,434188,2746.0,89.0,0.7,question_agency,question_agency_line,19.0,8.0,8.0,10.0,9.0,-0.3320032981695108,0.15115848589616532,3
35,10,1,35,124,html-slider-response,124,487516,10286.0,62.0,0.7,question_agency,question_agency_line,-8.0,7.0,8.0,7.0,12.0,-0.09892297258076853,0.10349528424214932,4
37,10,1,37,176,html-slider-response,176,697496,2480.0,98.0,0.7,question_agency,question_agency_line,28.0,9.0,10.0,10.0,10.0,-0.13590420589957605,0.2915763231959969,5
44,10,1,44,43,html-slider-response,43,172155,2034.0,93.0,0.8,question_agency,question_agency_line,13.0,7.0,6.0,4.0,3.0,0.2686088744797322,-0.10768279988166064,1
43,10,1,43,59,html-slider-response,59,230954,2388.0,93.0,0.8,question_agency,question_agency_line,13.0,7.0,7.0,7.0,12.0,-0.023366566984474754,-0.02382505287479129,2
41,10,1,41,93,html-slider-response,93,364457,1779.0,98.0,0.8,question_agency,question_agency_line,18.0,4.0,5.0,4.0,5.0,-0.5043040597564351,-0.08979824502459657,3
42,10,1,42,142,html-slider-response,142,560518,2841.0,70.0,0.8,question_agency,question_agency_line,-10.0,4.0,6.0,9.0,11.0,0.5338084352407765,-0.028066933544011883,4
40,10,1,40,185,html-slider-response,185,730525,1803.0,93.0,0.8,question_agency,question_agency_line,13.0,6.0,4.0,8.0,10.0,0.2865893025516227,-0.13487111428119788,5
49,10,1,49,46,html-slider-response,46,183038,1877.0,97.0,0.9,question_agency,question_agency_line,7.0,5.0,7.0,7.0,6.0,0.46325340152062966,-0.32978400829695587,1
47,10,1,47,74,html-slider-response,74,288304,3236.0,98.0,0.9,question_agency,question_agency_line,8.0,5.0,6.0,8.0,5.0,-0.21359237967825329,-0.07518064737912282,2
48,10,1,48,90,html-slider-response,90,353671,2288.0,98.0,0.9,question_agency,question_agency_line,8.0,6.0,6.0,8.0,15.0,-0.2165939119601747,0.025448296372982394,3
46,10,1,46,154,html-slider-response,154,609313,4063.0,77.0,0.9,question_agency,question_agency_line,-13.0,7.0,7.0,14.0,19.0,-0.2622419133716343,0.22915891660962626,4
45,10,1,45,173,html-slider-response,173,686011,4060.0,97.0,0.9,question_agency,question_agency_line,7.0,6.0,6.0,10.0,11.0,-0.2077916169513823,0.1345089600330583,5
53,10,1,53,28,html-slider-response,28,110326,2827.0,100.0,1.0,question_agency,question_agency_line,0.0,8.0,9.0,12.0,14.0,0.033830972500426854,-0.021288689225340544,1
50,10,1,50,56,html-slider-response,56,219558,3050.0,100.0,1.0,question_agency,question_agency_line,0.0,7.0,7.0,6.0,6.0,-0.04120535351922969,-0.20513418377367873,2
52,10,1,52,96,html-slider-response,96,375442,1980.0,100.0,1.0,question_agency,question_agency_line,0.0,6.0,6.0,6.0,8.0,-0.16550595871325105,-0.20121276096473956,3
51,10,1,51,136,html-slider-response,136,536769,2469.0,100.0,1.0,question_agency,question_agency_line,0.0,8.0,7.0,6.0,9.0,0.6523657187306016,-0.16444609670368693,4
54,10,1,54,188,html-slider-response,188,741325,1794.0,100.0,1.0,question_agency,question_agency_line,0.0,7.0,6.0,4.0,4.0,3.659995505371501e-18,-0.34074062356239276,5
1,11,1,1,37,html-slider-response,37,262200,3319.0,0.0,0.0,question_agency,question_agency_line,0.0,4.0,6.0,9.0,6.0,0.1874891197479096,-0.10042349940627499,1
3,11,1,3,77,html-slider-response,77,430065,3266.0,0.0,0.0,question_agency,question_agency_line,0.0,6.0,4.0,7.0,8.0,0.24617557373745477,0.3560721038265364,2
2,11,1,2,93,html-slider-response,93,497870,2965.0,6.0,0.0,question_agency,question_agency_line,6.0,4.0,7.0,11.0,19.0,-0.11660172668012225,0.20768244732604407,3
0,11,1,0,145,html-slider-response,145,710396,3139.0,32.0,0.0,question_agency,question_agency_line,32.0,5.0,9.0,8.0,7.0,-0.24772964431588965,-0.43711804691438305,4
4,11,1,4,185,html-slider-response,185,877703,2558.0,58.0,0.0,question_agency,question_agency_line,58.0,7.0,6.0,9.0,10.0,0.03311752681795834,-0.30915997059984274,5
7,11,1,7,28,html-slider-response,28,224951,2737.0,9.0,0.1,question_agency,question_agency_line,-1.0,6.0,9.0,7.0,4.0,0.19368468663111718,-0.010364115948138032,1
6,11,1,6,65,html-slider-response,65,379475,3113.0,4.0,0.1,question_agency,question_agency_line,-6.0,4.0,5.0,5.0,4.0,-0.40390916985326347,0.21998124596056226,2
9,11,1,9,90,html-slider-response,90,485897,3975.0,0.0,0.1,question_agency,question_agency_line,-10.0,10.0,7.0,7.0,8.0,-0.016650949846194616,-0.5391316111759915,3
5,11,1,5,130,html-slider-response,130,650275,1941.0,0.0,0.1,question_agency,question_agency_line,-10.0,6.0,6.0,6.0,5.0,0.23460470729374583,0.1023976935785324,4
8,11,1,8,158,html-slider-response,158,765624,8621.0,68.0,0.1,question_agency,question_agency_line,58.0,6.0,6.0,4.0,6.0,0.5341099071831183,0.2985069734462281,5
13,11,1,13,49,html-slider-response,49,314383,3465.0,32.0,0.2,question_agency,question_agency_line,12.0,7.0,6.0,5.0,6.0,0.5327944380840772,0.4749604771217397,1
14,11,1,14,71,html-slider-response,71,405367,4984.0,3.0,0.2,question_agency,question_agency_line,-17.0,8.0,10.0,6.0,9.0,0.5057705761429993,0.04941622471702649,2
10,11,1,10,102,html-slider-response,102,537290,2509.0,0.0,0.2,question_agency,question_agency_line,-20.0,7.0,7.0,10.0,6.0,-0.3790908478818061,-0.08337745920715126,3
12,11,1,12,139,html-slider-response,139,686145,3318.0,17.0,0.2,question_agency,question_agency_line,-3.0,9.0,7.0,3.0,2.0,0.22974311595408578,0.12983157402783216,4
11,11,1,11,188,html-slider-response,188,892162,5454.0,56.0,0.2,question_agency,question_agency_line,36.0,7.0,7.0,5.0,4.0,0.07911688255564507,0.5033702897356486,5
19,11,1,19,34,html-slider-response,34,249871,2490.0,44.0,0.3,question_agency,question_agency_line,14.0,7.0,5.0,9.0,4.0,0.17259987255962358,-0.27664029977330834,1
18,11,1,18,68,html-slider-response,68,391375,2892.0,28.0,0.3,question_agency,question_agency_line,-2.0,9.0,8.0,8.0,6.0,0.012874323820654553,0.13926009477415305,2
17,11,1,17,105,html-slider-response,105,550131,3836.0,39.0,0.3,question_agency,question_agency_line,9.0,7.0,8.0,8.0,7.0,-0.29569347916653954,0.24344977227535317,3
15,11,1,15,133,html-slider-response,133,661883,2602.0,18.0,0.3,question_agency,question_agency_line,-12.0,5.0,8.0,4.0,5.0,-0.09881040396112621,0.7666290865976495,4
16,11,1,16,170,html-slider-response,170,814235,3112.0,28.0,0.3,question_agency,question_agency_line,-2.0,8.0,8.0,6.0,8.0,-0.0016422626146701128,-0.2618039839913399,5
23,11,1,23,31,html-slider-response,31,238370,4408.0,8.0,0.4,question_agency,question_agency_line,-32.0,7.0,5.0,4.0,3.0,0.09661721377325261,0.28175295232318176,1
22,11,1,22,62,html-slider-response,62,367352,3657.0,40.0,0.4,question_agency,question_agency_line,0.0,7.0,8.0,10.0,4.0,0.4193819244210882,-0.1600868978443307,2
24,11,1,24,108,html-slider-response,108,563106,3968.0,5.0,0.4,question_agency,question_agency_line,-35.0,8.0,7.0,4.0,3.0,-0.44983296308012993,0.05706504390199036,3
20,11,1,20,142,html-slider-response,142,698246,3092.0,30.0,0.4,question_agency,question_agency_line,-10.0,9.0,6.0,8.0,6.0,0.11120128580598239,0.1461670346460075,4
21,11,1,21,176,html-slider-response,176,838377,3240.0,7.0,0.4,question_agency,question_agency_line,-33.0,8.0,7.0,6.0,8.0,0.06159581893990829,-0.46159627154214894,5
28,11,1,28,25,html-slider-response,25,213202,1936.0,13.0,0.5,question_agency,question_agency_line,-37.0,6.0,10.0,2.0,4.0,-0.0998381180507526,-0.16285940484964384,1
29,11,1,29,74,html-slider-response,74,417790,3416.0,13.0,0.5,question_agency,question_agency_line,-37.0,6.0,9.0,4.0,5.0,-0.263650937188704,0.07882787593009447,2
27,11,1,27,99,html-slider-response,99,525772,2373.0,63.0,0.5,question_agency,question_agency_line,13.0,7.0,7.0,7.0,4.0,0.28982709912869337,0.3713733588707841,3
25,11,1,25,124,html-slider-response,124,626862,2691.0,70.0,0.5,question_agency,question_agency_line,20.0,9.0,7.0,10.0,7.0,0.26883741019105845,0.14021842275566807,4
26,11,1,26,161,html-slider-response,161,777218,2587.0,17.0,0.5,question_agency,question_agency_line,-33.0,6.0,8.0,10.0,8.0,-0.12474357457164002,-0.19193385201888752,5
30,11,1,30,46,html-slider-response,46,301911,4595.0,55.0,0.6,question_agency,question_agency_line,-5.0,8.0,6.0,10.0,9.0,0.17826907416280863,-0.013284655457972637,1
33,11,1,33,83,html-slider-response,83,455825,4406.0,69.0,0.6,question_agency,question_agency_line,9.0,8.0,8.0,8.0,7.0,-0.3968953308384614,0.2347131608005394,2
31,11,1,31,96,html-slider-response,96,514389,7509.0,82.0,0.6,question_agency,question_agency_line,22.0,6.0,8.0,10.0,6.0,0.19333508779207567,0.11011375265785073,3
34,11,1,34,136,html-slider-response,136,673820,2930.0,49.0,0.6,question_agency,question_agency_line,-11.0,7.0,6.0,8.0,12.0,0.15021839984677787,0.1981654336035027,4
32,11,1,32,173,html-slider-response,173,826131,2890.0,42.0,0.6,question_agency,question_agency_line,-18.0,7.0,7.0,7.0,6.0,0.39862789451507247,0.1491301832162016,5
37,11,1,37,43,html-slider-response,43,288310,3095.0,64.0,0.7,question_agency,question_agency_line,-6.0,5.0,7.0,7.0,6.0,0.37586750258407964,0.10183333500377836,1
38,11,1,38,80,html-slider-response,80,442409,3336.0,80.0,0.7,question_agency,question_agency_line,10.0,9.0,6.0,3.0,6.0,-0.2695842207034909,0.38820127495853135,2
39,11,1,39,114,html-slider-response,114,588654,3334.0,92.0,0.7,question_agency,question_agency_line,22.0,9.0,7.0,17.0,11.0,0.03927184293657368,0.021802623383769947,3
35,11,1,35,151,html-slider-response,151,733922,2506.0,91.0,0.7,question_agency,question_agency_line,21.0,8.0,7.0,9.0,8.0,-0.6119104847672703,0.029946508511576632,4
36,11,1,36,179,html-slider-response,179,854640,7253.0,71.0,0.7,question_agency,question_agency_line,1.0,3.0,5.0,5.0,4.0,-0.0696260130578173,0.21667303174579344,5
43,11,1,43,52,html-slider-response,52,326746,3356.0,63.0,0.8,question_agency,question_agency_line,-17.0,8.0,4.0,6.0,7.0,0.46369057578028056,0.21291350985858098,1
42,11,1,42,59,html-slider-response,59,354684,4320.0,65.0,0.8,question_agency,question_agency_line,-15.0,9.0,10.0,11.0,10.0,0.019396931596760168,-0.13976144381581035,2
41,11,1,41,117,html-slider-response,117,600806,3143.0,87.0,0.8,question_agency,question_agency_line,7.0,7.0,6.0,6.0,5.0,0.5386726022009197,-0.6205359489316792,3
44,11,1,44,127,html-slider-response,127,639326,3457.0,65.0,0.8,question_agency,question_agency_line,-15.0,7.0,11.0,4.0,2.0,-0.5670419135115591,0.3734747413827539,4
40,11,1,40,182,html-slider-response,182,866138,2491.0,84.0,0.8,question_agency,question_agency_line,4.0,5.0,6.0,9.0,8.0,0.4280318225947455,-0.245445160400119,5
45,11,1,45,40,html-slider-response,40,276208,5001.0,98.0,0.9,question_agency,question_agency_line,8.0,7.0,8.0,6.0,5.0,-0.16432164959779877,0.1342804753301455,1
46,11,1,46,56,html-slider-response,56,341355,3890.0,92.0,0.9,question_agency,question_agency_line,2.0,6.0,6.0,9.0,8.0,-0.08174526384747753,-0.42025767983670015,2
49,11,1,49,120,html-slider-response,120,612633,2819.0,85.0,0.9,question_agency,question_agency_line,-5.0,7.0,8.0,4.0,4.0,-0.5256891320695427,-0.020359833463340776,3
48,11,1,48,154,html-slider-response,154,745925,2997.0,94.0,0.9,question_agency,question_agency_line,4.0,8.0,7.0,10.0,7.0,-0.011390664613799534,-0.4272250295508339,4
47,11,1,47,164,html-slider-response,164,789255,3030.0,93.0,0.9,question_agency,question_agency_line,3.0,8.0,8.0,12.0,13.0,0.20898249741927277,-0.13263920081737812,5
54,11,1,54,22,html-slider-response,22,202257,3862.0,100.0,1.0,question_agency,question_agency_line,0.0,7.0,9.0,8.0,7.0,0.34164243918625276,-0.11183909974983863,1
51,11,1,51,86,html-slider-response,86,469058,4225.0,100.0,1.0,question_agency,question_agency_line,0.0,5.0,6.0,12.0,12.0,-0.18502109414933396,0.4955701587709764,2
50,11,1,50,111,html-slider-response,111,576312,4198.0,100.0,1.0,question_agency,question_agency_line,0.0,7.0,4.0,11.0,10.0,0.24623025651604372,0.25373733847401364,3
52,11,1,52,148,html-slider-response,148,722408,3003.0,100.0,1.0,question_agency,question_agency_line,0.0,4.0,9.0,7.0,7.0,-0.23001211697340412,0.32964914872386547,4
53,11,1,53,167,html-slider-response,167,802115,3853.0,100.0,1.0,question_agency,question_agency_line,0.0,6.0,6.0,3.0,4.0,-0.3229656970814651,0.15561514017456576,5
4,12,1,4,52,html-slider-response,52,386383,4085.0,38.0,0.0,question_agency,question_agency_line,38.0,8.0,10.0,22.0,17.0,-0.3954671438784248,-0.3737766723180485,1
3,12,1,3,68,html-slider-response,68,459491,5370.0,12.0,0.0,question_agency,question_agency_line,12.0,8.0,8.0,28.0,19.0,0.22187815933298058,0.05089437909855179,2
2,12,1,2,120,html-slider-response,120,726755,4308.0,0.0,0.0,question_agency,question_agency_line,0.0,7.0,8.0,11.0,4.0,0.03247707615022903,-0.2284708483129905,3
1,12,1,1,145,html-slider-response,145,927661,3651.0,30.0,0.0,question_agency,question_agency_line,30.0,10.0,10.0,10.0,11.0,0.28890685284816126,-0.022047320503065737,4
0,12,1,0,188,html-slider-response,188,1120288,3478.0,13.0,0.0,question_agency,question_agency_line,13.0,11.0,9.0,0.0,0.0,0.0,0.0,5
5,12,1,5,25,html-slider-response,25,274042,3702.0,40.0,0.1,question_agency,question_agency_line,30.0,6.0,3.0,9.0,8.0,-0.0029443421748888195,0.37308900135125733,1
7,12,1,7,77,html-slider-response,77,496763,2940.0,45.0,0.1,question_agency,question_agency_line,35.0,9.0,9.0,8.0,19.0,-0.13746651631618154,0.1368167199885494,2
6,12,1,6,108,html-slider-response,108,676068,3495.0,1.0,0.1,question_agency,question_agency_line,-9.0,10.0,6.0,8.0,11.0,-0.5170847773235656,0.161158547497969,3
8,12,1,8,133,html-slider-response,133,879120,3175.0,23.0,0.1,question_agency,question_agency_line,13.0,7.0,5.0,8.0,14.0,-0.31795925422572574,-0.08911193190184577,4
9,12,1,9,185,html-slider-response,185,1107792,3808.0,0.0,0.1,question_agency,question_agency_line,-10.0,8.0,11.0,17.0,26.0,-0.05861664672766291,0.12974715240903867,5
14,12,1,14,34,html-slider-response,34,310771,4197.0,5.0,0.2,question_agency,question_agency_line,-15.0,6.0,7.0,13.0,8.0,0.03173275474634253,-0.030630330241271497,1
10,12,1,10,86,html-slider-response,86,536755,6170.0,46.0,0.2,question_agency,question_agency_line,26.0,6.0,8.0,7.0,10.0,-0.200789501014403,-0.11600669841922326,2
11,12,1,11,99,html-slider-response,99,638648,2990.0,47.0,0.2,question_agency,question_agency_line,27.0,6.0,11.0,14.0,6.0,-0.24970135211497796,0.3796457020619014,3
13,12,1,13,136,html-slider-response,136,891307,3178.0,22.0,0.2,question_agency,question_agency_line,2.0,7.0,4.0,12.0,8.0,-0.1630022800670309,-0.03798434476089788,4
12,12,1,12,179,html-slider-response,179,1081020,2794.0,1.0,0.2,question_agency,question_agency_line,-19.0,10.0,6.0,12.0,10.0,-0.18038711990087805,0.06388952479574943,5
16,12,1,16,37,html-slider-response,37,322899,3119.0,0.0,0.3,question_agency,question_agency_line,-30.0,7.0,4.0,6.0,25.0,0.1115803591197031,-0.06385743611679792,1
15,12,1,15,62,html-slider-response,62,423821,2950.0,18.0,0.3,question_agency,question_agency_line,-12.0,4.0,9.0,3.0,13.0,0.19242568827247036,-0.20260026043486506,2
18,12,1,18,90,html-slider-response,90,602298,3140.0,10.0,0.3,question_agency,question_agency_line,-20.0,7.0,7.0,40.0,28.0,0.09395543928900682,0.08776897378252507,3
19,12,1,19,130,html-slider-response,130,866926,3947.0,47.0,0.3,question_agency,question_agency_line,17.0,8.0,5.0,10.0,11.0,0.26671492207791264,-0.5418875609155646,4
17,12,1,17,161,html-slider-response,161,1000294,4018.0,80.0,0.3,question_agency,question_agency_line,50.0,6.0,7.0,13.0,8.0,0.1715427524918227,0.3376846529818862,5
20,12,1,20,49,html-slider-response,49,373282,2593.0,64.0,0.4,question_agency,question_agency_line,24.0,8.0,8.0,17.0,19.0,0.2452897207941267,-0.011240376975943482,1
21,12,1,21,65,html-slider-response,65,445101,12263.0,10.0,0.4,question_agency,question_agency_line,-30.0,5.0,7.0,7.0,12.0,0.45623557655626035,-0.11314308731344885,2
22,12,1,22,114,html-slider-response,114,701760,3917.0,14.0,0.4,question_agency,question_agency_line,-26.0,9.0,8.0,4.0,2.0,-0.16187002842978468,0.11347687359292312,3
24,12,1,24,142,html-slider-response,142,914991,3287.0,30.0,0.4,question_agency,question_agency_line,-10.0,7.0,7.0,12.0,12.0,0.15029745175935005,-0.03347822587468866,4
23,12,1,23,182,html-slider-response,182,1094960,4932.0,10.0,0.4,question_agency,question_agency_line,-30.0,6.0,7.0,8.0,24.0,0.40141711566522503,-0.09358366653859017,5
28,12,1,28,28,html-slider-response,28,285823,2766.0,70.0,0.5,question_agency,question_agency_line,20.0,13.0,11.0,14.0,19.0,0.02903099852963952,0.05409937117747955,1
27,12,1,27,59,html-slider-response,59,411857,2770.0,34.0,0.5,question_agency,question_agency_line,-16.0,7.0,3.0,32.0,41.0,0.035029799899761446,0.18073999338950322,2
29,12,1,29,102,html-slider-response,102,650259,2602.0,56.0,0.5,question_agency,question_agency_line,6.0,7.0,8.0,6.0,14.0,-0.05154194317335307,0.3597213736659579,3
25,12,1,25,154,html-slider-response,154,967603,6176.0,28.0,0.5,question_agency,question_agency_line,-22.0,6.0,8.0,4.0,0.0,-0.26787858225007766,0.0,4
26,12,1,26,167,html-slider-response,167,1030347,4455.0,55.0,0.5,question_agency,question_agency_line,5.0,6.0,6.0,14.0,10.0,-0.13562184979417807,0.18047974922851423,5
33,12,1,33,40,html-slider-response,40,335353,3435.0,21.0,0.6,question_agency,question_agency_line,-39.0,10.0,8.0,13.0,10.0,0.09932930782853164,-0.0914669298655421,1
