,SubNum,Include,level_0,index,trial_type,trial_index,time_elapsed,rt,response,control_level,task_id,screen_id,difference,Confidence,Confidence_RT,Key_Release_sim_x,Key_Release_sim_y,Key_Release_p1_x,Key_Release_p1_y,Correlation_x,Correlation_y,block
3,1,1,3,37,survey-likert,37,899425,2905.0,0.0,0.0,question_agency,question_agency_2_Lickert,0.0,0,2199.0,6.0,8.0,10.0,29.0,0.32465817732653873,-0.11085270319680517,1
2,1,1,2,97,survey-likert,97,1108497,2248.0,0.0,0.0,question_agency,question_agency_2_Lickert,0.0,0,1803.0,8.0,7.0,10.0,10.0,0.28021661919089935,0.17683459444712699,2
1,1,1,1,149,survey-likert,149,1287521,1375.0,0.0,0.0,question_agency,question_agency_2_Lickert,0.0,1,2365.0,6.0,6.0,19.0,26.0,0.08517286309117023,0.2249783900882939,3
4,1,1,4,161,survey-likert,161,1329067,3359.0,0.0,0.0,question_agency,question_agency_2_Lickert,0.0,16,2568.0,7.0,6.0,12.0,12.0,0.123355923571818,-0.3482522559370511,4
0,1,1,0,237,survey-likert,237,1590725,2834.0,0.0,0.0,question_agency,question_agency_2_Lickert,0.0,14,3403.0,9.0,3.0,14.0,48.0,-0.17208342676889185,0.03790844755999869,5
6,1,1,6,33,survey-likert,33,884895,2655.0,0.0,0.1,question_agency,question_agency_2_Lickert,-10.0,0,2614.0,7.0,9.0,6.0,14.0,0.3565010049182987,-0.10715817502051755,1
5,1,1,5,101,survey-likert,101,1121327,2020.0,0.0,0.1,question_agency,question_agency_2_Lickert,-10.0,4,2234.0,6.0,8.0,17.0,16.0,0.1305820022102985,0.08053195250008625,2
8,1,1,8,133,survey-likert,133,1235930,2760.0,0.0,0.1,question_agency,question_agency_2_Lickert,-10.0,1,1705.0,9.0,5.0,19.0,15.0,0.05027696266491359,-0.1305495989346508,3
9,1,1,9,181,survey-likert,181,1395202,2049.0,0.0,0.1,question_agency,question_agency_2_Lickert,-10.0,4,2002.0,7.0,7.0,27.0,18.0,-0.24962567413114778,0.01339331344571427,4
7,1,1,7,225,survey-likert,225,1542634,1780.0,0.0,0.1,question_agency,question_agency_2_Lickert,-10.0,4,3374.0,6.0,8.0,18.0,18.0,0.21032819601895328,-0.3420130662538657,5
10,1,1,10,41,survey-likert,41,912899,2265.0,0.0,0.2,question_agency,question_agency_2_Lickert,-20.0,0,1828.0,6.0,6.0,6.0,13.0,0.3434890135365025,-0.1657281500523087,1
14,1,1,14,65,survey-likert,65,997344,1847.0,0.0,0.2,question_agency,question_agency_2_Lickert,-20.0,3,2850.0,6.0,7.0,7.0,11.0,0.24034956732219315,-0.30213600265362933,2
11,1,1,11,113,survey-likert,113,1164703,3240.0,0.0,0.2,question_agency,question_agency_2_Lickert,-20.0,31,3891.0,7.0,8.0,16.0,8.0,0.3651323886245946,0.4937995326403747,3
12,1,1,12,169,survey-likert,169,1355797,2764.0,0.0,0.2,question_agency,question_agency_2_Lickert,-20.0,3,1952.0,11.0,9.0,10.0,31.0,0.10417768422159661,-0.19106731560678733,4
13,1,1,13,229,survey-likert,229,1557658,2638.0,0.0,0.2,question_agency,question_agency_2_Lickert,-20.0,7,2290.0,9.0,8.0,26.0,26.0,-0.3271361122157985,-0.040285501316479226,5
17,1,1,17,25,survey-likert,25,857327,3077.0,0.0,0.3,question_agency,question_agency_2_Lickert,-30.0,0,2473.0,8.0,8.0,7.0,9.0,-0.11918384521078039,-0.21550773668378684,1
19,1,1,19,77,survey-likert,77,1038861,1953.0,0.0,0.3,question_agency,question_agency_2_Lickert,-30.0,4,1946.0,7.0,8.0,15.0,16.0,-0.0006380946663216077,-0.16375777106618797,2
18,1,1,18,125,survey-likert,125,1206568,2864.0,0.0,0.3,question_agency,question_agency_2_Lickert,-30.0,5,3021.0,10.0,6.0,5.0,10.0,0.1749136012588349,0.1466953877313504,3
15,1,1,15,185,survey-likert,185,1409167,2955.0,0.0,0.3,question_agency,question_agency_2_Lickert,-30.0,3,1821.0,4.0,6.0,9.0,4.0,0.16935423632498015,0.06457435645037977,4
16,1,1,16,213,survey-likert,213,1503639,2454.0,100.0,0.3,question_agency,question_agency_2_Lickert,70.0,38,1151.0,6.0,6.0,10.0,7.0,-0.15959914125861868,0.05319528144188999,5
20,1,1,20,53,survey-likert,53,956194,2105.0,0.0,0.4,question_agency,question_agency_2_Lickert,-40.0,26,2860.0,8.0,7.0,9.0,10.0,0.020222996480111766,-0.04883378297262926,1
22,1,1,22,93,survey-likert,93,1095227,4370.0,0.0,0.4,question_agency,question_agency_2_Lickert,-40.0,0,2012.0,6.0,7.0,12.0,7.0,-0.269395016135394,-0.15608834855855053,2
23,1,1,23,137,survey-likert,137,1248884,2235.0,100.0,0.4,question_agency,question_agency_2_Lickert,60.0,73,1619.0,8.0,9.0,5.0,9.0,0.41288606522949806,0.46841879798197444,3
21,1,1,21,153,survey-likert,153,1301017,2122.0,0.0,0.4,question_agency,question_agency_2_Lickert,-40.0,5,1704.0,9.0,6.0,4.0,15.0,0.10203789281394966,-0.14155832974632976,4
24,1,1,24,233,survey-likert,233,1572119,3163.0,100.0,0.4,question_agency,question_agency_2_Lickert,60.0,50,6766.0,9.0,9.0,9.0,4.0,0.23239740270507697,0.30795068740437864,5
25,1,1,25,29,survey-likert,29,872125,3313.0,0.0,0.5,question_agency,question_agency_2_Lickert,-50.0,19,1104.0,6.0,7.0,15.0,5.0,0.054686562637587505,0.12683879826619449,1
26,1,1,26,105,survey-likert,105,1134953,2383.0,100.0,0.5,question_agency,question_agency_2_Lickert,50.0,60,1399.0,7.0,6.0,11.0,17.0,0.17891034850401352,-0.3913416451387523,2
28,1,1,28,117,survey-likert,117,1179769,2166.0,100.0,0.5,question_agency,question_agency_2_Lickert,50.0,63,1733.0,6.0,7.0,34.0,5.0,-0.08171351685991189,-0.09855489266773074,3
27,1,1,27,193,survey-likert,193,1437065,1989.0,100.0,0.5,question_agency,question_agency_2_Lickert,50.0,58,1394.0,7.0,7.0,12.0,6.0,0.24835679154365287,0.11411061959729024,4
29,1,1,29,221,survey-likert,221,1529271,2796.0,100.0,0.5,question_agency,question_agency_2_Lickert,50.0,80,2576.0,8.0,7.0,6.0,7.0,0.25668702531229537,-0.02435024270510916,5
34,1,1,34,45,survey-likert,45,926233,2496.0,100.0,0.6,question_agency,question_agency_2_Lickert,40.0,71,3875.0,8.0,6.0,8.0,9.0,0.24536082317935073,0.13775337429397738,1
31,1,1,31,73,survey-likert,73,1024814,1846.0,100.0,0.6,question_agency,question_agency_2_Lickert,40.0,87,3083.0,7.0,6.0,8.0,5.0,0.38914709807213144,0.35995245298256207,2
33,1,1,33,145,survey-likert,145,1275631,2687.0,100.0,0.6,question_agency,question_agency_2_Lickert,40.0,80,1506.0,6.0,12.0,8.0,8.0,-0.2674979346029988,0.4743828429218286,3
32,1,1,32,165,survey-likert,165,1342840,2195.0,100.0,0.6,question_agency,question_agency_2_Lickert,40.0,78,1186.0,5.0,8.0,6.0,8.0,-0.17405262448047654,0.10704562013146676,4
30,1,1,30,197,survey-likert,197,1449396,1928.0,100.0,0.6,question_agency,question_agency_2_Lickert,40.0,86,1605.0,7.0,5.0,9.0,6.0,-0.2207731640626688,0.4019631020491765,5
38,1,1,38,57,survey-likert,57,969996,1931.0,100.0,0.7,question_agency,question_agency_2_Lickert,30.0,86,1979.0,4.0,6.0,6.0,9.0,-0.5900668559050671,0.1824420596528152,1
37,1,1,37,81,survey-likert,81,1052142,2325.0,100.0,0.7,question_agency,question_agency_2_Lickert,30.0,71,1284.0,7.0,4.0,7.0,7.0,-0.32839865469480095,0.3137719110008152,2
36,1,1,36,121,survey-likert,121,1192877,2365.0,100.0,0.7,question_agency,question_agency_2_Lickert,30.0,87,1821.0,6.0,7.0,10.0,9.0,0.5918682676955606,0.30602988948517257,3
39,1,1,39,157,survey-likert,157,1314055,2326.0,100.0,0.7,question_agency,question_agency_2_Lickert,30.0,77,2644.0,6.0,8.0,11.0,8.0,-0.03830020242147101,-0.06520387991950187,4
35,1,1,35,205,survey-likert,205,1476596,3210.0,100.0,0.7,question_agency,question_agency_2_Lickert,30.0,88,2288.0,8.0,6.0,7.0,8.0,0.5401301663662275,0.05088265259787408,5
43,1,1,43,49,survey-likert,49,941712,2592.0,100.0,0.8,question_agency,question_agency_2_Lickert,20.0,99,3367.0,4.0,5.0,7.0,6.0,-0.05629767361017419,-0.17097931622540374,1
41,1,1,41,69,survey-likert,69,1011632,2428.0,100.0,0.8,question_agency,question_agency_2_Lickert,20.0,100,2325.0,5.0,7.0,6.0,10.0,-0.5273180248635347,0.21890111512253035,2
44,1,1,44,109,survey-likert,109,1148397,3036.0,100.0,0.8,question_agency,question_agency_2_Lickert,20.0,97,4312.0,6.0,8.0,8.0,10.0,0.4923418322545273,-0.04164007781786873,3
40,1,1,40,173,survey-likert,173,1369442,2685.0,100.0,0.8,question_agency,question_agency_2_Lickert,20.0,87,1322.0,6.0,6.0,5.0,7.0,0.03386836922169355,-0.17630807530114534,4
42,1,1,42,209,survey-likert,209,1490056,2164.0,100.0,0.8,question_agency,question_agency_2_Lickert,20.0,95,2121.0,8.0,6.0,7.0,9.0,-0.16418853717220344,0.12461485286973151,5
46,1,1,46,21,survey-likert,21,840651,2596.0,100.0,0.9,question_agency,question_agency_2_Lickert,10.0,100,4588.0,9.0,7.0,6.0,5.0,-0.45862786513883064,-0.22498787028743725,1
48,1,1,48,85,survey-likert,85,1064658,2223.0,100.0,0.9,question_agency,question_agency_2_Lickert,10.0,93,2169.0,5.0,7.0,6.0,7.0,-0.18841946103107673,0.08550408379983135,2
49,1,1,49,129,survey-likert,129,1220953,2352.0,100.0,0.9,question_agency,question_agency_2_Lickert,10.0,96,3205.0,9.0,7.0,6.0,6.0,0.4705082847154918,0.02025110717209207,3
47,1,1,47,177,survey-likert,177,1381813,2039.0,100.0,0.9,question_agency,question_agency_2_Lickert,10.0,100,2331.0,5.0,5.0,13.0,8.0,0.3318074088491324,0.6508045659858644,4
45,1,1,45,217,survey-likert,217,1516012,2212.0,100.0,0.9,question_agency,question_agency_2_Lickert,10.0,78,1455.0,10.0,10.0,6.0,7.0,-0.21090099921989966,0.24044300291347978,5
53,1,1,53,61,survey-likert,61,983245,2261.0,100.0,1.0,question_agency,question_agency_2_Lickert,0.0,100,3243.0,7.0,5.0,8.0,10.0,0.2996551731055601,-0.17083881837193138,1
52,1,1,52,89,survey-likert,89,1078308,2472.0,100.0,1.0,question_agency,question_agency_2_Lickert,0.0,100,3555.0,11.0,9.0,8.0,18.0,0.13243634488728162,0.33097541974417893,2
51,1,1,51,141,survey-likert,141,1261708,2198.0,100.0,1.0,question_agency,question_agency_2_Lickert,0.0,100,2228.0,6.0,5.0,10.0,9.0,0.21017556577675012,0.36811757682491747,3
50,1,1,50,189,survey-likert,189,1422553,2557.0,100.0,1.0,question_agency,question_agency_2_Lickert,0.0,100,3514.0,6.0,8.0,11.0,10.0,0.11869793180710185,-0.25071460624540326,4
54,1,1,54,201,survey-likert,201,1462071,2063.0,100.0,1.0,question_agency,question_agency_2_Lickert,0.0,100,2304.0,6.0,7.0,10.0,11.0,0.3185227889415988,-0.38338251527024886,5
0,2,1,0,25,survey-likert,25,159796,3252.0,0.0,0.0,question_agency,question_agency_2_Lickert,0.0,86,3170.0,8.0,7.0,4.0,8.0,-0.16710818883660086,-0.12153057068242745,1
3,2,1,3,101,survey-likert,101,427274,3669.0,0.0,0.0,question_agency,question_agency_2_Lickert,0.0,99,1698.0,6.0,8.0,3.0,4.0,-0.03275606525547325,0.3145183964410177,2
1,2,1,1,149,survey-likert,149,602159,2318.0,0.0,0.0,question_agency,question_agency_2_Lickert,0.0,79,1851.0,5.0,8.0,2.0,14.0,0.44921290459443297,-0.10158143316676194,3
2,2,1,2,157,survey-likert,157,628583,3047.0,0.0,0.0,question_agency,question_agency_2_Lickert,0.0,91,2414.0,6.0,8.0,14.0,5.0,0.22885004258589142,0.3936826743954571,4
4,2,1,4,201,survey-likert,201,783897,2379.0,0.0,0.0,question_agency,question_agency_2_Lickert,0.0,100,3399.0,6.0,8.0,0.0,7.0,0.0,0.2141287117944587,5
5,2,1,5,61,survey-likert,61,288638,2578.0,0.0,0.1,question_agency,question_agency_2_Lickert,-10.0,93,1856.0,6.0,5.0,15.0,39.0,0.28143698123058614,-0.3614719104546472,1
6,2,1,6,85,survey-likert,85,372209,3107.0,0.0,0.1,question_agency,question_agency_2_Lickert,-10.0,89,2101.0,6.0,5.0,22.0,29.0,-0.08044688321620305,-0.06083101711560526,2
8,2,1,8,125,survey-likert,125,509756,1980.0,0.0,0.1,question_agency,question_agency_2_Lickert,-10.0,96,1502.0,8.0,5.0,11.0,17.0,0.2525371934773055,-0.1482472635233027,3
7,2,1,7,169,survey-likert,169,672505,3266.0,0.0,0.1,question_agency,question_agency_2_Lickert,-10.0,97,1787.0,3.0,4.0,9.0,10.0,0.35101944130681223,-0.4947449899138161,4
9,2,1,9,209,survey-likert,209,814519,2217.0,0.0,0.1,question_agency,question_agency_2_Lickert,-10.0,97,3926.0,6.0,6.0,2.0,18.0,0.24905991272466416,-0.10253122154057137,5
11,2,1,11,37,survey-likert,37,206785,2813.0,0.0,0.2,question_agency,question_agency_2_Lickert,-20.0,87,2055.0,8.0,7.0,6.0,35.0,-0.22885762033021126,-0.1410952577323005,1
14,2,1,14,93,survey-likert,93,399536,2296.0,0.0,0.2,question_agency,question_agency_2_Lickert,-20.0,91,1438.0,4.0,7.0,13.0,6.0,0.03155088684195411,0.3438361618711772,2
12,2,1,12,145,survey-likert,145,589027,2265.0,0.0,0.2,question_agency,question_agency_2_Lickert,-20.0,78,1802.0,8.0,8.0,4.0,4.0,0.12245707976213929,0.1702169364549265,3
10,2,1,10,193,survey-likert,193,757135,2681.0,0.0,0.2,question_agency,question_agency_2_Lickert,-20.0,97,1993.0,5.0,5.0,13.0,20.0,0.3177424479054368,0.4632081240340777,4
13,2,1,13,229,survey-likert,229,883954,2636.0,0.0,0.2,question_agency,question_agency_2_Lickert,-20.0,97,1751.0,10.0,7.0,8.0,26.0,0.14124183566196077,-0.13619885662736395,5
19,2,1,19,21,survey-likert,21,139604,10887.0,100.0,0.3,question_agency,question_agency_2_Lickert,70.0,69,7799.0,6.0,5.0,10.0,20.0,-0.35804180881563735,0.13992731371051798,1
15,2,1,15,65,survey-likert,65,302030,2413.0,0.0,0.3,question_agency,question_agency_2_Lickert,-30.0,86,1842.0,7.0,9.0,26.0,21.0,0.21251981045489515,0.16681260209124055,2
17,2,1,17,133,survey-likert,133,544188,3346.0,0.0,0.3,question_agency,question_agency_2_Lickert,-30.0,99,2113.0,5.0,8.0,2.0,4.0,-0.0178281145347962,0.15024469112419514,3
18,2,1,18,185,survey-likert,185,730066,3198.0,0.0,0.3,question_agency,question_agency_2_Lickert,-30.0,97,1761.0,8.0,6.0,4.0,15.0,-0.14022197622819751,0.046553003173021745,4
16,2,1,16,213,survey-likert,213,829309,1853.0,0.0,0.3,question_agency,question_agency_2_Lickert,-30.0,98,1841.0,5.0,7.0,2.0,15.0,0.2508992511319773,-0.2078851024874555,5
23,2,1,23,33,survey-likert,33,189406,2368.0,0.0,0.4,question_agency,question_agency_2_Lickert,-40.0,67,5554.0,8.0,8.0,19.0,36.0,-0.06446201318166113,0.0040834607307776985,1
24,2,1,24,89,survey-likert,89,385610,2289.0,0.0,0.4,question_agency,question_agency_2_Lickert,-40.0,41,2621.0,7.0,5.0,9.0,15.0,0.07201162265628921,0.13248122349353403,2
21,2,1,21,141,survey-likert,141,575717,2851.0,0.0,0.4,question_agency,question_agency_2_Lickert,-40.0,88,2032.0,8.0,9.0,14.0,10.0,0.25116345529971423,-0.1938204670762078,3
20,2,1,20,161,survey-likert,161,642402,2390.0,0.0,0.4,question_agency,question_agency_2_Lickert,-40.0,68,2178.0,5.0,8.0,17.0,18.0,0.1711177952793898,0.14920795413346405,4
22,2,1,22,237,survey-likert,237,910775,2597.0,0.0,0.4,question_agency,question_agency_2_Lickert,-40.0,81,2396.0,6.0,8.0,7.0,14.0,0.4532882674488509,0.06825902253903467,5
26,2,1,26,29,survey-likert,29,174483,2504.0,100.0,0.5,question_agency,question_agency_2_Lickert,50.0,92,3541.0,8.0,6.0,18.0,31.0,-0.02671093875275328,-0.23954939423746865,1
29,2,1,29,73,survey-likert,73,329482,3012.0,0.0,0.5,question_agency,question_agency_2_Lickert,-50.0,94,1708.0,9.0,6.0,9.0,9.0,-0.007864455269757027,0.129524608001953,2
25,2,1,25,129,survey-likert,129,524583,4315.0,100.0,0.5,question_agency,question_agency_2_Lickert,50.0,58,7246.0,6.0,9.0,8.0,12.0,-0.06776237674303408,0.142981340708949,3
28,2,1,28,177,survey-likert,177,701223,3144.0,0.0,0.5,question_agency,question_agency_2_Lickert,-50.0,93,1950.0,5.0,5.0,17.0,13.0,-0.12201846452894495,0.33206437607238176,4
27,2,1,27,233,survey-likert,233,897251,2535.0,0.0,0.5,question_agency,question_agency_2_Lickert,-50.0,95,1915.0,7.0,6.0,2.0,6.0,0.3841619599688019,0.2761635479898209,5
30,2,1,30,41,survey-likert,41,221332,3477.0,100.0,0.6,question_agency,question_agency_2_Lickert,40.0,79,2151.0,8.0,8.0,13.0,42.0,0.037451700169469845,0.012039335378853828,1
32,2,1,32,69,survey-likert,69,315105,2223.0,100.0,0.6,question_agency,question_agency_2_Lickert,40.0,86,2354.0,9.0,6.0,6.0,12.0,-0.14058294873610327,-0.29024557105809334,2
34,2,1,34,137,survey-likert,137,558286,2969.0,100.0,0.6,question_agency,question_agency_2_Lickert,40.0,57,5570.0,4.0,8.0,6.0,10.0,0.08243256500418822,-0.5050867526909747,3
33,2,1,33,173,survey-likert,173,685919,2620.0,100.0,0.6,question_agency,question_agency_2_Lickert,40.0,83,3152.0,6.0,5.0,5.0,13.0,0.015771941950330104,-0.31841238071522543,4
31,2,1,31,205,survey-likert,205,800441,4131.0,0.0,0.6,question_agency,question_agency_2_Lickert,-60.0,83,2844.0,6.0,6.0,4.0,9.0,-0.5542401454561966,-0.5661357735855315,5
39,2,1,39,49,survey-likert,49,248170,2743.0,100.0,0.7,question_agency,question_agency_2_Lickert,30.0,81,3023.0,6.0,5.0,7.0,12.0,0.5298879852001781,-0.005410622469763366,1
38,2,1,38,105,survey-likert,105,440375,2394.0,100.0,0.7,question_agency,question_agency_2_Lickert,30.0,94,2150.0,9.0,9.0,2.0,8.0,0.3565607361859268,0.3840186198164078,2
35,2,1,35,117,survey-likert,117,483070,3000.0,100.0,0.7,question_agency,question_agency_2_Lickert,30.0,95,1850.0,2.0,4.0,3.0,34.0,0.4808935879266811,0.26732418883280384,3
36,2,1,36,165,survey-likert,165,657158,3570.0,0.0,0.7,question_agency,question_agency_2_Lickert,-70.0,63,3082.0,7.0,10.0,6.0,8.0,-0.014292863101986589,0.20299868479382707,4
37,2,1,37,221,survey-likert,221,857241,2286.0,100.0,0.7,question_agency,question_agency_2_Lickert,30.0,74,2295.0,8.0,9.0,9.0,6.0,0.05208734986101247,0.5156829731198201,5
42,2,1,42,45,survey-likert,45,234715,2219.0,100.0,0.8,question_agency,question_agency_2_Lickert,20.0,87,1703.0,7.0,9.0,14.0,14.0,0.14112856141963903,-0.07868558187939097,1
40,2,1,40,77,survey-likert,77,342949,2751.0,100.0,0.8,question_agency,question_agency_2_Lickert,20.0,78,3186.0,7.0,7.0,7.0,12.0,0.21407950262634115,0.6936096218676097,2
43,2,1,43,113,survey-likert,113,468785,2892.0,100.0,0.8,question_agency,question_agency_2_Lickert,20.0,89,2264.0,7.0,6.0,4.0,4.0,-0.42614575664304594,0.13995850732724438,3
44,2,1,44,189,survey-likert,189,743599,2758.0,100.0,0.8,question_agency,question_agency_2_Lickert,20.0,96,1797.0,10.0,9.0,6.0,8.0,0.04112618070326885,-0.5008167465577091,4
41,2,1,41,217,survey-likert,217,842771,2546.0,100.0,0.8,question_agency,question_agency_2_Lickert,20.0,100,3174.0,7.0,5.0,1.0,5.0,-0.31590421851392936,0.3023309062212445,5
46,2,1,46,53,survey-likert,53,262471,2168.0,100.0,0.9,question_agency,question_agency_2_Lickert,10.0,95,1574.0,7.0,7.0,6.0,11.0,0.24763454599198123,0.11037608491804385,1
47,2,1,47,97,survey-likert,97,412639,2655.0,100.0,0.9,question_agency,question_agency_2_Lickert,10.0,96,1860.0,9.0,6.0,8.0,8.0,0.24943446456164972,0.133449443754024,2
48,2,1,48,121,survey-likert,121,496123,2191.0,100.0,0.9,question_agency,question_agency_2_Lickert,10.0,97,2648.0,6.0,8.0,4.0,19.0,0.5306958285361613,-0.14484146575380186,3
45,2,1,45,153,survey-likert,153,614989,1966.0,100.0,0.9,question_agency,question_agency_2_Lickert,10.0,97,1537.0,7.0,9.0,5.0,6.0,0.3687932824331371,-0.21228719874042593,4
49,2,1,49,225,survey-likert,225,870519,1971.0,100.0,0.9,question_agency,question_agency_2_Lickert,10.0,99,1738.0,8.0,7.0,4.0,15.0,0.2359135621316088,-0.04984036752712436,5
52,2,1,52,57,survey-likert,57,275334,2279.0,100.0,1.0,question_agency,question_agency_2_Lickert,0.0,90,1714.0,11.0,9.0,12.0,15.0,0.24765777791110638,-0.14188653321772213,1
53,2,1,53,81,survey-likert,81,357687,2540.0,100.0,1.0,question_agency,question_agency_2_Lickert,0.0,96,2398.0,6.0,6.0,8.0,29.0,-0.06828890162496112,0.039172508634489,2
51,2,1,51,109,survey-likert,109,453743,2201.0,100.0,1.0,question_agency,question_agency_2_Lickert,0.0,99,3139.0,7.0,8.0,4.0,5.0,-0.2722245488258496,0.5469835552723441,3
50,2,1,50,181,survey-likert,181,714292,2108.0,100.0,1.0,question_agency,question_agency_2_Lickert,0.0,100,3563.0,6.0,7.0,6.0,14.0,-0.06532031016781212,0.26865635854108966,4
54,2,1,54,197,survey-likert,197,770335,2195.0,100.0,1.0,question_agency,question_agency_2_Lickert,0.0,100,2174.0,8.0,7.0,3.0,9.0,-0.1900068118065675,0.4226712043943009,5
0,3,1,0,25,survey-likert,25,2444114,2466.0,0.0,0.0,question_agency,question_agency_2_Lickert,0.0,100,5022.0,8.0,8.0,0.0,0.0,0.0,0.0,1
2,3,1,2,73,survey-likert,73,2625256,2525.0,0.0,0.0,question_agency,question_agency_2_Lickert,0.0,100,2790.0,7.0,8.0,8.0,21.0,-0.21946773525853938,0.12389998295798156,2
4,3,1,4,141,survey-likert,141,2878587,2912.0,0.0,0.0,question_agency,question_agency_2_Lickert,0.0,100,1550.0,9.0,7.0,0.0,0.0,0.0,0.0,3
3,3,1,3,157,survey-likert,157,2946934,5736.0,0.0,0.0,question_agency,question_agency_2_Lickert,0.0,100,1941.0,6.0,11.0,0.0,0.0,0.0,0.0,4
1,3,1,1,233,survey-likert,233,3242340,2771.0,0.0,0.0,question_agency,question_agency_2_Lickert,0.0,100,2056.0,5.0,5.0,0.0,0.0,0.0,0.0,5
9,3,1,9,61,survey-likert,61,2580222,7645.0,0.0,0.1,question_agency,question_agency_2_Lickert,-10.0,100,1728.0,8.0,6.0,0.0,0.0,0.0,0.0,1
8,3,1,8,81,survey-likert,81,2653700,4282.0,0.0,0.1,question_agency,question_agency_2_Lickert,-10.0,100,2260.0,11.0,9.0,4.0,32.0,0.28648500692120704,-0.2570187712965156,2
7,3,1,7,137,survey-likert,137,2864955,18604.0,0.0,0.1,question_agency,question_agency_2_Lickert,-10.0,100,1712.0,7.0,8.0,0.0,2.0,0.0,0.08221282485771221,3
6,3,1,6,189,survey-likert,189,3076809,2691.0,0.0,0.1,question_agency,question_agency_2_Lickert,-10.0,100,4457.0,11.0,5.0,0.0,0.0,0.0,0.0,4
5,3,1,5,237,survey-likert,237,3255790,2386.0,0.0,0.1,question_agency,question_agency_2_Lickert,-10.0,100,1723.0,6.0,7.0,0.0,0.0,0.0,0.0,5
12,3,1,12,45,survey-likert,45,2515735,3102.0,0.0,0.2,question_agency,question_agency_2_Lickert,-20.0,0,8126.0,11.0,8.0,0.0,0.0,0.0,0.0,1
10,3,1,10,101,survey-likert,101,2720715,1990.0,0.0,0.2,question_agency,question_agency_2_Lickert,-20.0,98,1803.0,7.0,7.0,7.0,28.0,0.012552583573966694,0.04572218554150595,2
14,3,1,14,145,survey-likert,145,2898489,9344.0,0.0,0.2,question_agency,question_agency_2_Lickert,-20.0,93,5756.0,8.0,5.0,8.0,6.0,-0.26044089034623685,-0.08759708839634373,3
13,3,1,13,169,survey-likert,169,3008499,6702.0,0.0,0.2,question_agency,question_agency_2_Lickert,-20.0,90,2448.0,4.0,5.0,0.0,0.0,0.0,0.0,4
11,3,1,11,229,survey-likert,229,3221156,2498.0,0.0,0.2,question_agency,question_agency_2_Lickert,-20.0,100,9405.0,8.0,7.0,0.0,0.0,0.0,0.0,5
18,3,1,18,29,survey-likert,29,2460144,1999.0,0.0,0.3,question_agency,question_agency_2_Lickert,-30.0,100,2694.0,5.0,6.0,0.0,0.0,0.0,0.0,1
19,3,1,19,89,survey-likert,89,2680267,2309.0,0.0,0.3,question_agency,question_agency_2_Lickert,-30.0,68,1322.0,8.0,5.0,2.0,17.0,0.461488123234263,-0.15399445715466056,2
17,3,1,17,109,survey-likert,109,2746339,2244.0,0.0,0.3,question_agency,question_agency_2_Lickert,-30.0,100,2521.0,9.0,7.0,10.0,3.0,-0.10264702461309906,0.050479367137207264,3
15,3,1,15,173,survey-likert,173,3022568,2612.0,0.0,0.3,question_agency,question_agency_2_Lickert,-30.0,94,2450.0,9.0,7.0,0.0,0.0,0.0,0.0,4
16,3,1,16,209,survey-likert,209,3153200,5157.0,0.0,0.3,question_agency,question_agency_2_Lickert,-30.0,64,2963.0,9.0,5.0,0.0,0.0,0.0,0.0,5
23,3,1,23,53,survey-likert,53,2548944,1999.0,0.0,0.4,question_agency,question_agency_2_Lickert,-40.0,100,1769.0,8.0,6.0,0.0,6.0,0.0,-0.19018421084664508,1
24,3,1,24,77,survey-likert,77,2638948,1892.0,100.0,0.4,question_agency,question_agency_2_Lickert,60.0,33,1463.0,10.0,6.0,3.0,4.0,0.370900593827948,0.20504379339684498,2
22,3,1,22,121,survey-likert,121,2786417,1397.0,100.0,0.4,question_agency,question_agency_2_Lickert,60.0,34,2236.0,5.0,5.0,8.0,13.0,-0.01868626086720673,0.16252719008823532,3
20,3,1,20,177,survey-likert,177,3036466,2442.0,0.0,0.4,question_agency,question_agency_2_Lickert,-40.0,100,2489.0,8.0,8.0,0.0,0.0,0.0,0.0,4
21,3,1,21,213,survey-likert,213,3167124,1952.0,0.0,0.4,question_agency,question_agency_2_Lickert,-40.0,100,2130.0,5.0,9.0,0.0,0.0,0.0,0.0,5
29,3,1,29,37,survey-likert,37,2487620,2115.0,100.0,0.5,question_agency,question_agency_2_Lickert,50.0,43,1608.0,6.0,6.0,4.0,4.0,0.23830963781336836,0.26977588982378103,1
26,3,1,26,85,survey-likert,85,2667619,2653.0,0.0,0.5,question_agency,question_agency_2_Lickert,-50.0,26,1331.0,5.0,10.0,6.0,7.0,0.31240550790546256,0.13207405164107403,2
25,3,1,25,149,survey-likert,149,2916084,2833.0,100.0,0.5,question_agency,question_agency_2_Lickert,50.0,25,1944.0,5.0,9.0,4.0,9.0,-0.39337277564841483,0.22522592398288913,3
27,3,1,27,185,survey-likert,185,3063504,2282.0,0.0,0.5,question_agency,question_agency_2_Lickert,-50.0,38,1607.0,5.0,6.0,0.0,0.0,0.0,0.0,4
28,3,1,28,205,survey-likert,205,3135755,2639.0,0.0,0.5,question_agency,question_agency_2_Lickert,-50.0,100,3282.0,7.0,9.0,0.0,0.0,0.0,0.0,5
34,3,1,34,41,survey-likert,41,2502011,3774.0,0.0,0.6,question_agency,question_agency_2_Lickert,-60.0,93,1614.0,8.0,6.0,2.0,1.0,0.3871704406911177,0.2895621885930116,1
30,3,1,30,93,survey-likert,93,2692903,2307.0,100.0,0.6,question_agency,question_agency_2_Lickert,40.0,59,3795.0,8.0,6.0,3.0,5.0,0.3828793489058597,-0.022029124291987178,2
31,3,1,31,133,survey-likert,133,2834650,2031.0,100.0,0.6,question_agency,question_agency_2_Lickert,40.0,75,2694.0,6.0,6.0,5.0,8.0,0.5282257901895817,-0.23445948213541232,3
32,3,1,32,193,survey-likert,193,3093529,3254.0,0.0,0.6,question_agency,question_agency_2_Lickert,-60.0,100,3788.0,7.0,8.0,0.0,0.0,0.0,0.0,4
33,3,1,33,225,survey-likert,225,3206883,1977.0,0.0,0.6,question_agency,question_agency_2_Lickert,-60.0,100,2768.0,4.0,6.0,0.0,0.0,0.0,0.0,5
35,3,1,35,57,survey-likert,57,2561808,2085.0,0.0,0.7,question_agency,question_agency_2_Lickert,-70.0,36,1763.0,8.0,8.0,4.0,3.0,0.40733895582258645,0.19947980297974727,1
38,3,1,38,105,survey-likert,105,2733593,2067.0,100.0,0.7,question_agency,question_agency_2_Lickert,30.0,31,1493.0,5.0,7.0,5.0,8.0,-0.39382386957811466,-0.023132678057282818,2
36,3,1,36,113,survey-likert,113,2760013,2146.0,100.0,0.7,question_agency,question_agency_2_Lickert,30.0,39,3316.0,8.0,6.0,5.0,4.0,-0.11624160653276626,-0.04064880960545753,3
39,3,1,39,161,survey-likert,161,2976261,18380.0,0.0,0.7,question_agency,question_agency_2_Lickert,-70.0,100,1730.0,9.0,5.0,0.0,0.0,0.0,0.0,4
37,3,1,37,197,survey-likert,197,3109216,2892.0,0.0,0.7,question_agency,question_agency_2_Lickert,-70.0,64,1420.0,6.0,8.0,0.0,0.0,0.0,0.0,5
42,3,1,42,33,survey-likert,33,2474375,2528.0,100.0,0.8,question_agency,question_agency_2_Lickert,20.0,65,2123.0,8.0,6.0,3.0,4.0,-0.12063643890287298,0.11382922029510116,1
41,3,1,41,65,survey-likert,65,2592991,2031.0,100.0,0.8,question_agency,question_agency_2_Lickert,20.0,73,3078.0,3.0,7.0,1.0,6.0,-0.7843672337921057,-0.11220400676567505,2
43,3,1,43,125,survey-likert,125,2808312,10652.0,100.0,0.8,question_agency,question_agency_2_Lickert,20.0,41,2317.0,5.0,4.0,4.0,10.0,0.28534550381290696,-0.2161793818865567,3
40,3,1,40,165,survey-likert,165,2991094,4096.0,0.0,0.8,question_agency,question_agency_2_Lickert,-80.0,100,1698.0,6.0,8.0,0.0,0.0,0.0,0.0,4
44,3,1,44,201,survey-likert,201,3122240,2596.0,0.0,0.8,question_agency,question_agency_2_Lickert,-80.0,100,1868.0,7.0,9.0,0.0,0.0,0.0,0.0,5
46,3,1,46,21,survey-likert,21,2427928,3975.0,100.0,0.9,question_agency,question_agency_2_Lickert,10.0,56,4710.0,8.0,5.0,9.0,12.0,0.005955364310146384,-0.1271992610323368,1
47,3,1,47,69,survey-likert,69,2611996,6918.0,100.0,0.9,question_agency,question_agency_2_Lickert,10.0,58,1729.0,9.0,7.0,4.0,7.0,0.370023066694223,0.39804019772153076,2
49,3,1,49,129,survey-likert,129,2821818,2180.0,100.0,0.9,question_agency,question_agency_2_Lickert,10.0,89,1795.0,5.0,9.0,7.0,8.0,-0.2318263903706154,0.02449637064930354,3
48,3,1,48,181,survey-likert,181,3049694,1732.0,100.0,0.9,question_agency,question_agency_2_Lickert,10.0,68,2522.0,9.0,8.0,0.0,0.0,0.0,0.0,4
45,3,1,45,221,survey-likert,221,3194071,2657.0,0.0,0.9,question_agency,question_agency_2_Lickert,-90.0,100,1829.0,6.0,6.0,0.0,0.0,0.0,0.0,5
54,3,1,54,49,survey-likert,49,2536143,3273.0,100.0,1.0,question_agency,question_agency_2_Lickert,0.0,100,1794.0,6.0,9.0,0.0,0.0,0.0,0.0,1
53,3,1,53,97,survey-likert,97,2707751,2044.0,100.0,1.0,question_agency,question_agency_2_Lickert,0.0,100,1967.0,9.0,5.0,8.0,8.0,0.052846308146834914,0.06445278854359757,2
51,3,1,51,117,survey-likert,117,2774379,2041.0,100.0,1.0,question_agency,question_agency_2_Lickert,0.0,100,1633.0,5.0,6.0,8.0,10.0,0.29713260790779134,0.35389466726042257,3
50,3,1,50,153,survey-likert,153,2929629,2595.0,0.0,1.0,question_agency,question_agency_2_Lickert,-100.0,100,2563.0,4.0,9.0,2.0,4.0,-0.1453121883241781,0.172224501461792,4
52,3,1,52,217,survey-likert,217,3180359,2098.0,0.0,1.0,question_agency,question_agency_2_Lickert,-100.0,100,2049.0,5.0,6.0,0.0,0.0,0.0,0.0,5
4,4,1,4,37,survey-likert,37,180865,4548.0,0.0,0.0,question_agency,question_agency_2_Lickert,0.0,100,3549.0,5.0,8.0,21.0,2.0,-0.2511568739022873,0.2068308326763203,1
3,4,1,3,101,survey-likert,101,456532,3477.0,0.0,0.0,question_agency,question_agency_2_Lickert,0.0,97,3451.0,9.0,9.0,11.0,4.0,-0.4418012115641174,0.271495879751754,2
0,4,1,0,121,survey-likert,121,532878,2525.0,0.0,0.0,question_agency,question_agency_2_Lickert,0.0,95,2323.0,9.0,4.0,8.0,4.0,0.0034948650187558647,-0.12976410801384605,3
2,4,1,2,185,survey-likert,185,777397,4397.0,0.0,0.0,question_agency,question_agency_2_Lickert,0.0,100,3278.0,5.0,8.0,3.0,4.0,0.2978313720861336,-0.16693051200825548,4
1,4,1,1,217,survey-likert,217,901640,2841.0,0.0,0.0,question_agency,question_agency_2_Lickert,0.0,98,2757.0,6.0,7.0,6.0,2.0,0.07214494844895358,0.36404963573457727,5
9,4,1,9,21,survey-likert,21,110926,5972.0,0.0,0.1,question_agency,question_agency_2_Lickert,-10.0,90,5164.0,8.0,5.0,5.0,10.0,0.47807118291191636,-0.015383619577892773,1
7,4,1,7,81,survey-likert,81,360309,14289.0,0.0,0.1,question_agency,question_agency_2_Lickert,-10.0,63,13236.0,7.0,7.0,13.0,12.0,0.21120005015482315,0.025474624127895522,2
5,4,1,5,149,survey-likert,149,640218,2567.0,0.0,0.1,question_agency,question_agency_2_Lickert,-10.0,94,3664.0,6.0,3.0,16.0,0.0,-0.35254896508664957,0.0,3
6,4,1,6,157,survey-likert,157,671035,3058.0,0.0,0.1,question_agency,question_agency_2_Lickert,-10.0,84,2230.0,9.0,9.0,6.0,5.0,-0.06441875561362663,0.17407696606763454,4
8,4,1,8,221,survey-likert,221,916474,3050.0,0.0,0.1,question_agency,question_agency_2_Lickert,-10.0,100,2271.0,7.0,6.0,3.0,0.0,0.07430745493761716,0.0,5
13,4,1,13,33,survey-likert,33,164152,2639.0,0.0,0.2,question_agency,question_agency_2_Lickert,-20.0,0,3147.0,7.0,6.0,25.0,34.0,-0.2000745338053768,0.0244864068578447,1
11,4,1,11,77,survey-likert,77,332950,3477.0,100.0,0.2,question_agency,question_agency_2_Lickert,80.0,62,4059.0,5.0,6.0,6.0,3.0,-0.18164299295667932,0.34200069657729365,2
14,4,1,14,133,survey-likert,133,579515,2113.0,0.0,0.2,question_agency,question_agency_2_Lickert,-20.0,91,4276.0,7.0,7.0,24.0,22.0,-0.09813976039118794,-0.3337752666760064,3
10,4,1,10,161,survey-likert,161,686655,4379.0,0.0,0.2,question_agency,question_agency_2_Lickert,-20.0,83,2353.0,8.0,7.0,6.0,4.0,-0.1620628703531336,-0.323690563419152,4
12,4,1,12,209,survey-likert,209,869589,7539.0,0.0,0.2,question_agency,question_agency_2_Lickert,-20.0,50,4234.0,8.0,8.0,12.0,12.0,-0.03878884683871347,-0.0677771149433877,5
16,4,1,16,53,survey-likert,53,243580,4872.0,0.0,0.3,question_agency,question_agency_2_Lickert,-30.0,84,3394.0,5.0,7.0,12.0,11.0,-0.1892682930274671,0.41668047611740966,1
19,4,1,19,69,survey-likert,69,302368,3454.0,100.0,0.3,question_agency,question_agency_2_Lickert,70.0,78,4130.0,8.0,10.0,9.0,0.0,-0.12030927832995116,0.0,2
18,4,1,18,137,survey-likert,137,596532,3729.0,0.0,0.3,question_agency,question_agency_2_Lickert,-30.0,70,2940.0,5.0,6.0,7.0,4.0,-0.6252047516520612,-0.1594920689234455,3
15,4,1,15,169,survey-likert,169,717689,3487.0,0.0,0.3,question_agency,question_agency_2_Lickert,-30.0,81,2298.0,8.0,10.0,3.0,2.0,-0.36967061906001425,-0.07272289633962861,4
17,4,1,17,213,survey-likert,213,886388,3543.0,0.0,0.3,question_agency,question_agency_2_Lickert,-30.0,93,3388.0,7.0,7.0,19.0,10.0,-0.1857887208102158,0.2524315099335908,5
22,4,1,22,25,survey-likert,25,133649,8543.0,0.0,0.4,question_agency,question_agency_2_Lickert,-40.0,15,2861.0,7.0,8.0,15.0,4.0,0.01647727848254946,-0.08911826843399595,1
20,4,1,20,89,survey-likert,89,411945,3938.0,0.0,0.4,question_agency,question_agency_2_Lickert,-40.0,79,2719.0,8.0,8.0,13.0,7.0,-0.04182533640953888,0.014352258563729594,2
23,4,1,23,113,survey-likert,113,503067,3867.0,0.0,0.4,question_agency,question_agency_2_Lickert,-40.0,93,3097.0,7.0,9.0,4.0,6.0,-0.341266710102921,-0.4538037286491197,3
24,4,1,24,173,survey-likert,173,731628,2620.0,0.0,0.4,question_agency,question_agency_2_Lickert,-40.0,100,2220.0,7.0,7.0,9.0,4.0,-0.02791587011619357,0.27101647692611386,4
21,4,1,21,229,survey-likert,229,947822,3526.0,0.0,0.4,question_agency,question_agency_2_Lickert,-40.0,82,3279.0,11.0,6.0,18.0,14.0,0.1875414969713,-0.06600868285078419,5
28,4,1,28,57,survey-likert,57,258780,2779.0,100.0,0.5,question_agency,question_agency_2_Lickert,50.0,88,3240.0,9.0,5.0,11.0,11.0,0.04464301968681747,0.2962213979070099,1
27,4,1,27,73,survey-likert,73,318311,2799.0,100.0,0.5,question_agency,question_agency_2_Lickert,50.0,79,2144.0,7.0,4.0,5.0,5.0,-0.04380583613113983,-0.23606205051825072,2
29,4,1,29,125,survey-likert,125,547832,3618.0,100.0,0.5,question_agency,question_agency_2_Lickert,50.0,83,3141.0,9.0,6.0,22.0,23.0,-0.2330229147906586,-0.06945038085297267,3
25,4,1,25,177,survey-likert,177,745897,3039.0,0.0,0.5,question_agency,question_agency_2_Lickert,-50.0,49,2126.0,8.0,4.0,11.0,10.0,0.1641808402941696,-0.4343072102960211,4
26,4,1,26,197,survey-likert,197,820731,2912.0,100.0,0.5,question_agency,question_agency_2_Lickert,50.0,35,1792.0,8.0,5.0,11.0,10.0,0.11196777302150131,-0.3905393813300407,5
30,4,1,30,29,survey-likert,29,148970,3447.0,100.0,0.6,question_agency,question_agency_2_Lickert,40.0,90,3529.0,4.0,7.0,5.0,4.0,0.22282464061814825,-0.20275743001749783,1
34,4,1,34,85,survey-likert,85,388314,5753.0,100.0,0.6,question_agency,question_agency_2_Lickert,40.0,80,10673.0,8.0,7.0,18.0,17.0,-0.08884270433703087,0.33205051686227216,2
31,4,1,31,145,survey-likert,145,626386,3638.0,100.0,0.6,question_agency,question_agency_2_Lickert,40.0,80,2251.0,6.0,8.0,16.0,9.0,-0.04711763953408923,0.18707099189244894,3
33,4,1,33,165,survey-likert,165,700683,2656.0,100.0,0.6,question_agency,question_agency_2_Lickert,40.0,98,4508.0,7.0,8.0,15.0,14.0,-0.12476287279974428,-0.04601947682575507,4
32,4,1,32,225,survey-likert,225,931735,3972.0,100.0,0.6,question_agency,question_agency_2_Lickert,40.0,90,3548.0,5.0,5.0,14.0,13.0,-0.15559785023763795,-0.1383717613815261,5
35,4,1,35,49,survey-likert,49,226390,2947.0,100.0,0.7,question_agency,question_agency_2_Lickert,30.0,94,3306.0,7.0,11.0,20.0,27.0,-0.17931917166678757,0.21543851396665584,1
37,4,1,37,93,survey-likert,93,427267,3588.0,100.0,0.7,question_agency,question_agency_2_Lickert,30.0,64,2528.0,8.0,7.0,13.0,19.0,-0.29618522886138965,-0.14699426972299331,2
36,4,1,36,109,survey-likert,109,487624,3382.0,100.0,0.7,question_agency,question_agency_2_Lickert,30.0,100,2556.0,6.0,7.0,5.0,5.0,0.14684864091341426,-0.26371508064330795,3
39,4,1,39,153,survey-likert,153,656392,3491.0,100.0,0.7,question_agency,question_agency_2_Lickert,30.0,19,2571.0,7.0,5.0,11.0,9.0,-0.20636766922121452,-0.5597493325847207,4
38,4,1,38,201,survey-likert,201,833858,2317.0,100.0,0.7,question_agency,question_agency_2_Lickert,30.0,100,3245.0,6.0,9.0,18.0,20.0,0.35366739502001493,-0.060298271722652216,5
42,4,1,42,45,survey-likert,45,211861,3439.0,100.0,0.8,question_agency,question_agency_2_Lickert,20.0,100,2565.0,4.0,4.0,50.0,48.0,-0.3153929962709789,0.21116530104600617,1
41,4,1,41,97,survey-likert,97,441777,2962.0,100.0,0.8,question_agency,question_agency_2_Lickert,20.0,86,2251.0,8.0,6.0,14.0,12.0,0.15938120135820366,-0.3110419294017289,2
40,4,1,40,141,survey-likert,141,610975,2484.0,100.0,0.8,question_agency,question_agency_2_Lickert,20.0,83,2749.0,6.0,7.0,8.0,6.0,0.0773547181209936,0.03276490559900484,3
43,4,1,43,189,survey-likert,189,792731,3041.0,100.0,0.8,question_agency,question_agency_2_Lickert,20.0,100,2306.0,7.0,8.0,18.0,19.0,-0.17022004144874273,0.04841283155055869,4
44,4,1,44,233,survey-likert,233,962930,2815.0,100.0,0.8,question_agency,question_agency_2_Lickert,20.0,99,2364.0,5.0,9.0,44.0,38.0,0.07522392590165383,0.0051230619437973805,5
47,4,1,47,41,survey-likert,41,196760,3324.0,100.0,0.9,question_agency,question_agency_2_Lickert,10.0,100,2651.0,4.0,5.0,34.0,30.0,-0.21141599058198135,0.0015810291189993738,1
46,4,1,46,65,survey-likert,65,286932,2505.0,100.0,0.9,question_agency,question_agency_2_Lickert,10.0,97,2964.0,7.0,6.0,7.0,4.0,-0.033498540928153825,0.4829812318927337,2
45,4,1,45,129,survey-likert,129,565399,5405.0,100.0,0.9,question_agency,question_agency_2_Lickert,10.0,98,2984.0,5.0,4.0,12.0,8.0,-0.49140639110882667,-0.10231473712690135,3
48,4,1,48,193,survey-likert,193,806454,2395.0,100.0,0.9,question_agency,question_agency_2_Lickert,10.0,100,2349.0,6.0,5.0,22.0,22.0,0.16302750661374713,-0.051607705662688984,4
49,4,1,49,237,survey-likert,237,977739,3430.0,100.0,0.9,question_agency,question_agency_2_Lickert,10.0,100,2609.0,6.0,8.0,47.0,51.0,-0.12628609027994167,0.08384145596636576,5
54,4,1,54,61,survey-likert,61,273117,2084.0,100.0,1.0,question_agency,question_agency_2_Lickert,0.0,100,2289.0,8.0,7.0,13.0,20.0,-0.35828683841059233,-0.29364482114650314,1
53,4,1,53,105,survey-likert,105,472315,3307.0,100.0,1.0,question_agency,question_agency_2_Lickert,0.0,100,2913.0,5.0,8.0,20.0,20.0,0.08359404994335845,-0.13276805398926228,2
52,4,1,52,117,survey-likert,117,517953,2773.0,100.0,1.0,question_agency,question_agency_2_Lickert,0.0,100,3391.0,10.0,10.0,21.0,20.0,0.2966888703858941,-0.07114543944002462,3
51,4,1,51,181,survey-likert,181,759885,2856.0,100.0,1.0,question_agency,question_agency_2_Lickert,0.0,100,4103.0,4.0,9.0,38.0,41.0,-0.008496352307575847,0.05081201124176277,4
50,4,1,50,205,survey-likert,205,848983,2854.0,100.0,1.0,question_agency,question_agency_2_Lickert,0.0,100,4052.0,4.0,5.0,14.0,20.0,0.41279694831693986,-0.08856037043569588,5
0,5,1,0,21,survey-likert,21,127924,5223.0,0.0,0.0,question_agency,question_agency_2_Lickert,0.0,76,8236.0,8.0,9.0,4.0,14.0,0.04360835320042071,-0.0668290970461556,1
4,5,1,4,85,survey-likert,85,397564,3217.0,0.0,0.0,question_agency,question_agency_2_Lickert,0.0,100,4893.0,7.0,8.0,2.0,12.0,-0.1078680719234232,0.18602924713022895,2
3,5,1,3,137,survey-likert,137,607838,2860.0,0.0,0.0,question_agency,question_agency_2_Lickert,0.0,100,4988.0,8.0,8.0,8.0,16.0,-0.07500934670954974,-0.31905224725327086,3
2,5,1,2,177,survey-likert,177,774502,3979.0,0.0,0.0,question_agency,question_agency_2_Lickert,0.0,100,5645.0,5.0,8.0,8.0,0.0,-0.41534532817902764,0.0,4
1,5,1,1,229,survey-likert,229,1045934,5076.0,0.0,0.0,question_agency,question_agency_2_Lickert,0.0,100,7547.0,5.0,6.0,2.0,4.0,-0.1422515699260605,-0.02058048994500401,5
9,5,1,9,25,survey-likert,25,150242,5061.0,0.0,0.1,question_agency,question_agency_2_Lickert,-10.0,88,2931.0,6.0,6.0,6.0,7.0,0.0008807319025252252,-0.1274234489650136,1
7,5,1,7,69,survey-likert,69,327284,4404.0,0.0,0.1,question_agency,question_agency_2_Lickert,-10.0,100,5045.0,6.0,5.0,6.0,10.0,-0.366027416184552,-0.08548743600443183,2
6,5,1,6,113,survey-likert,113,513354,3167.0,0.0,0.1,question_agency,question_agency_2_Lickert,-10.0,100,2925.0,5.0,5.0,10.0,4.0,-0.009937324708952044,-0.23308375125877878,3
5,5,1,5,169,survey-likert,169,740548,3775.0,0.0,0.1,question_agency,question_agency_2_Lickert,-10.0,100,3532.0,10.0,7.0,20.0,0.0,-0.04148762173220118,0.0,4
8,5,1,8,237,survey-likert,237,1084783,5518.0,0.0,0.1,question_agency,question_agency_2_Lickert,-10.0,100,3177.0,8.0,10.0,2.0,8.0,-0.30343928807373965,-0.03491474648014062,5
14,5,1,14,41,survey-likert,41,216350,4171.0,0.0,0.2,question_agency,question_agency_2_Lickert,-20.0,87,3344.0,9.0,9.0,10.0,4.0,0.3278745176369988,0.43542479414473984,1
12,5,1,12,93,survey-likert,93,430407,3721.0,0.0,0.2,question_agency,question_agency_2_Lickert,-20.0,100,3392.0,8.0,7.0,12.0,6.0,0.0019434527239641961,0.5106220889018857,2
13,5,1,13,121,survey-likert,121,545815,3965.0,0.0,0.2,question_agency,question_agency_2_Lickert,-20.0,100,3281.0,7.0,9.0,26.0,10.0,0.08123155204044173,0.010858164177038663,3
11,5,1,11,185,survey-likert,185,809565,2495.0,0.0,0.2,question_agency,question_agency_2_Lickert,-20.0,100,3824.0,5.0,8.0,4.0,2.0,-0.2473374728509755,0.015713621227606812,4
10,5,1,10,197,survey-likert,197,865259,10812.0,0.0,0.2,question_agency,question_agency_2_Lickert,-20.0,100,3135.0,8.0,6.0,6.0,6.0,-0.26651433973308647,0.14736037318977516,5
19,5,1,19,29,survey-likert,29,165936,3749.0,100.0,0.3,question_agency,question_agency_2_Lickert,70.0,50,2130.0,6.0,8.0,16.0,24.0,0.33768175357418834,-0.15492020053352692,1
16,5,1,16,65,survey-likert,65,311288,4218.0,0.0,0.3,question_agency,question_agency_2_Lickert,-30.0,100,2579.0,7.0,5.0,14.0,9.0,-0.2205465863367112,-0.4062780139061498,2
15,5,1,15,129,survey-likert,129,577268,3476.0,0.0,0.3,question_agency,question_agency_2_Lickert,-30.0,100,3215.0,9.0,7.0,8.0,4.0,-0.06811596543238485,0.2083425395497776,3
18,5,1,18,189,survey-likert,189,826153,3744.0,0.0,0.3,question_agency,question_agency_2_Lickert,-30.0,100,3378.0,8.0,9.0,15.0,12.0,0.07455736679699106,-0.17029008967521195,4
17,5,1,17,225,survey-likert,225,1026782,4448.0,0.0,0.3,question_agency,question_agency_2_Lickert,-30.0,100,5059.0,4.0,4.0,10.0,9.0,0.01596029341451476,-0.4418125182329507,5
23,5,1,23,57,survey-likert,57,279708,4170.0,100.0,0.4,question_agency,question_agency_2_Lickert,60.0,51,2152.0,9.0,7.0,9.0,0.0,0.393543263218611,0.0,1
24,5,1,24,89,survey-likert,89,415182,3693.0,100.0,0.4,question_agency,question_agency_2_Lickert,60.0,53,2486.0,8.0,9.0,9.0,4.0,0.07682803072037706,0.2046404920443202,2
22,5,1,22,133,survey-likert,133,593055,3555.0,0.0,0.4,question_agency,question_agency_2_Lickert,-40.0,100,2893.0,8.0,6.0,28.0,5.0,0.29489944813972974,-0.15022433426974968,3
21,5,1,21,173,survey-likert,173,757575,4470.0,0.0,0.4,question_agency,question_agency_2_Lickert,-40.0,80,3926.0,5.0,3.0,9.0,0.0,-0.03046211476084093,0.0,4
20,5,1,20,217,survey-likert,217,995105,4942.0,0.0,0.4,question_agency,question_agency_2_Lickert,-40.0,100,2719.0,8.0,8.0,15.0,2.0,0.13560286103250258,0.33263338870293985,5
25,5,1,25,61,survey-likert,61,294290,3411.0,0.0,0.5,question_agency,question_agency_2_Lickert,-50.0,80,3756.0,6.0,5.0,10.0,6.0,-0.08079987581869215,0.5868490503136049,1
26,5,1,26,73,survey-likert,73,345239,3892.0,0.0,0.5,question_agency,question_agency_2_Lickert,-50.0,66,2088.0,10.0,7.0,10.0,13.0,-0.1978493100153254,-0.17021344628839594,2
29,5,1,29,109,survey-likert,109,499008,4310.0,0.0,0.5,question_agency,question_agency_2_Lickert,-50.0,77,2149.0,11.0,7.0,16.0,6.0,-0.126437618053518,0.18351323380055168,3
28,5,1,28,181,survey-likert,181,794383,5223.0,0.0,0.5,question_agency,question_agency_2_Lickert,-50.0,88,3676.0,8.0,6.0,8.0,6.0,0.013666943849732464,-0.1949260828544051,4
27,5,1,27,233,survey-likert,233,1067005,4507.0,0.0,0.5,question_agency,question_agency_2_Lickert,-50.0,52,3239.0,7.0,5.0,12.0,6.0,0.1431979672166184,0.03092503461535395,5
33,5,1,33,37,survey-likert,37,199953,4259.0,100.0,0.6,question_agency,question_agency_2_Lickert,40.0,97,3199.0,5.0,6.0,7.0,6.0,0.1159441332854634,0.11121315306553897,1
34,5,1,34,105,survey-likert,105,477903,3366.0,100.0,0.6,question_agency,question_agency_2_Lickert,40.0,100,7777.0,5.0,6.0,9.0,4.0,0.46171453040067173,0.13918234595414036,2
32,5,1,32,117,survey-likert,117,528588,3294.0,100.0,0.6,question_agency,question_agency_2_Lickert,40.0,100,4250.0,9.0,7.0,9.0,6.0,0.2943145834095798,0.3179622052297271,3
31,5,1,31,193,survey-likert,193,842739,4183.0,100.0,0.6,question_agency,question_agency_2_Lickert,40.0,75,2692.0,6.0,10.0,10.0,9.0,-0.2693495691794806,0.3652295438869534,4
30,5,1,30,213,survey-likert,213,977768,3211.0,100.0,0.6,question_agency,question_agency_2_Lickert,40.0,100,3373.0,6.0,7.0,26.0,10.0,-0.17779506054938116,0.1128856121742643,5
38,5,1,38,45,survey-likert,45,232529,3814.0,100.0,0.7,question_agency,question_agency_2_Lickert,30.0,90,3066.0,10.0,7.0,8.0,4.0,-0.12441082374215506,-0.33674964537678387,1
35,5,1,35,101,survey-likert,101,462156,2875.0,100.0,0.7,question_agency,question_agency_2_Lickert,30.0,100,3370.0,7.0,8.0,8.0,4.0,0.01824624384238944,-0.21100411559486987,2
37,5,1,37,149,survey-likert,149,659347,3219.0,100.0,0.7,question_agency,question_agency_2_Lickert,30.0,100,3625.0,7.0,4.0,4.0,4.0,-0.11102797786452855,-0.19738084118140287,3
39,5,1,39,153,survey-likert,153,674706,2718.0,100.0,0.7,question_agency,question_agency_2_Lickert,30.0,100,3248.0,7.0,5.0,4.0,4.0,-0.0805588911617524,0.00450454004895067,4
36,5,1,36,209,survey-likert,209,958733,4316.0,100.0,0.7,question_agency,question_agency_2_Lickert,30.0,100,6803.0,5.0,7.0,8.0,6.0,-0.1071039743381326,0.36151261100865695,5
43,5,1,43,53,survey-likert,53,263944,2740.0,100.0,0.8,question_agency,question_agency_2_Lickert,20.0,96,2575.0,8.0,8.0,6.0,4.0,0.027467407698778624,-0.1661735078413298,1
40,5,1,40,77,survey-likert,77,364775,8430.0,100.0,0.8,question_agency,question_agency_2_Lickert,20.0,100,3858.0,6.0,5.0,7.0,6.0,0.0811235838852076,-0.2924717417200151,2
44,5,1,44,145,survey-likert,145,640917,3148.0,100.0,0.8,question_agency,question_agency_2_Lickert,20.0,100,6194.0,8.0,8.0,6.0,4.0,-0.17273664902959598,0.03854203270775749,3
42,5,1,42,165,survey-likert,165,724754,4062.0,100.0,0.8,question_agency,question_agency_2_Lickert,20.0,100,2998.0,7.0,9.0,17.0,0.0,0.25110763630679783,0.0,4
41,5,1,41,205,survey-likert,205,937469,5919.0,100.0,0.8,question_agency,question_agency_2_Lickert,20.0,100,7926.0,8.0,8.0,10.0,10.0,0.06135620433761756,0.10092895199905885,5
47,5,1,47,33,survey-likert,33,181565,4487.0,100.0,0.9,question_agency,question_agency_2_Lickert,10.0,98,5115.0,11.0,7.0,5.0,6.0,0.014914364625734375,-0.15955479622136984,1
46,5,1,46,81,survey-likert,81,381298,3648.0,100.0,0.9,question_agency,question_agency_2_Lickert,10.0,100,4037.0,6.0,10.0,8.0,7.0,-0.2957380514623573,0.27482207431774297,2
45,5,1,45,141,survey-likert,141,625335,3495.0,100.0,0.9,question_agency,question_agency_2_Lickert,10.0,100,3412.0,4.0,6.0,4.0,4.0,-0.259554519686283,-0.18763600889916715,3
49,5,1,49,157,survey-likert,157,690011,3036.0,100.0,0.9,question_agency,question_agency_2_Lickert,10.0,100,5508.0,6.0,4.0,6.0,8.0,-0.33274252329466975,-0.11752504446760542,4
48,5,1,48,221,survey-likert,221,1009911,3071.0,100.0,0.9,question_agency,question_agency_2_Lickert,10.0,100,3408.0,9.0,7.0,6.0,2.0,0.32884898279270386,-0.27218574141506807,5
54,5,1,54,49,survey-likert,49,248043,3432.0,100.0,1.0,question_agency,question_agency_2_Lickert,0.0,98,4138.0,8.0,6.0,12.0,14.0,0.13764895539214628,0.02326247165947782,1
50,5,1,50,97,survey-likert,97,446811,3998.0,100.0,1.0,question_agency,question_agency_2_Lickert,0.0,100,3454.0,7.0,7.0,6.0,8.0,0.05064295878297649,-0.24773620230032561,2
53,5,1,53,125,survey-likert,125,561617,3505.0,100.0,1.0,question_agency,question_agency_2_Lickert,0.0,100,3161.0,8.0,6.0,4.0,4.0,0.07597226457475013,-0.02819134265782826,3
52,5,1,52,161,survey-likert,161,708011,3474.0,100.0,1.0,question_agency,question_agency_2_Lickert,0.0,100,3664.0,3.0,6.0,10.0,2.0,-0.24170520855921762,-0.09288854203282558,4
51,5,1,51,201,survey-likert,201,918670,41260.0,0.0,1.0,question_agency,question_agency_2_Lickert,-100.0,100,3860.0,4.0,7.0,0.0,0.0,0.0,0.0,5
4,6,0,4,49,survey-likert,49,201177,3176.0,0.0,0.0,question_agency,question_agency_2_Lickert,0.0,100,2127.0,6.0,6.0,0.0,0.0,0.0,0.0,1
2,6,0,2,105,survey-likert,105,469766,2875.0,100.0,0.0,question_agency,question_agency_2_Lickert,100.0,34,1941.0,7.0,9.0,0.0,0.0,0.0,0.0,2
0,6,0,0,113,survey-likert,113,510574,5648.0,0.0,0.0,question_agency,question_agency_2_Lickert,0.0,17,4866.0,7.0,6.0,0.0,0.0,0.0,0.0,3
1,6,0,1,189,survey-likert,189,934552,3604.0,0.0,0.0,question_agency,question_agency_2_Lickert,0.0,81,1947.0,8.0,7.0,0.0,0.0,0.0,0.0,4
3,6,0,3,233,survey-likert,233,1115793,1796.0,0.0,0.0,question_agency,question_agency_2_Lickert,0.0,90,2262.0,7.0,8.0,0.0,0.0,0.0,0.0,5
8,6,0,8,37,survey-likert,37,156224,3808.0,0.0,0.1,question_agency,question_agency_2_Lickert,-10.0,100,2640.0,4.0,7.0,0.0,0.0,0.0,0.0,1
5,6,0,5,93,survey-likert,93,424201,2997.0,0.0,0.1,question_agency,question_agency_2_Lickert,-10.0,100,2744.0,7.0,5.0,0.0,0.0,0.0,0.0,2
6,6,0,6,121,survey-likert,121,547292,5181.0,0.0,0.1,question_agency,question_agency_2_Lickert,-10.0,22,10530.0,11.0,10.0,0.0,0.0,0.0,0.0,3
7,6,0,7,153,survey-likert,153,715944,4257.0,0.0,0.1,question_agency,question_agency_2_Lickert,-10.0,99,7006.0,7.0,5.0,0.0,0.0,0.0,0.0,4
9,6,0,9,213,survey-likert,213,1048600,3801.0,0.0,0.1,question_agency,question_agency_2_Lickert,-10.0,90,2855.0,8.0,8.0,0.0,0.0,0.0,0.0,5
11,6,0,11,57,survey-likert,57,229444,2379.0,0.0,0.2,question_agency,question_agency_2_Lickert,-20.0,100,1902.0,7.0,7.0,0.0,0.0,0.0,0.0,1
12,6,0,12,101,survey-likert,101,456026,2985.0,100.0,0.2,question_agency,question_agency_2_Lickert,80.0,51,1839.0,4.0,5.0,0.0,0.0,0.0,0.0,2
13,6,0,13,125,survey-likert,125,571588,4698.0,0.0,0.2,question_agency,question_agency_2_Lickert,-20.0,93,11334.0,7.0,9.0,0.0,0.0,0.0,0.0,3
14,6,0,14,161,survey-likert,161,775161,7429.0,0.0,0.2,question_agency,question_agency_2_Lickert,-20.0,87,4171.0,7.0,6.0,0.0,0.0,0.0,0.0,4
10,6,0,10,205,survey-likert,205,1008279,5411.0,0.0,0.2,question_agency,question_agency_2_Lickert,-20.0,86,2379.0,6.0,5.0,0.0,0.0,0.0,0.0,5
15,6,0,15,29,survey-likert,29,128591,3627.0,100.0,0.3,question_agency,question_agency_2_Lickert,70.0,32,1431.0,7.0,10.0,0.0,0.0,0.0,0.0,1
18,6,0,18,65,survey-likert,65,267586,11743.0,0.0,0.3,question_agency,question_agency_2_Lickert,-30.0,100,6535.0,7.0,6.0,0.0,0.0,0.0,0.0,2
17,6,0,17,133,survey-likert,133,621486,3966.0,0.0,0.3,question_agency,question_agency_2_Lickert,-30.0,97,4293.0,9.0,9.0,0.0,0.0,0.0,0.0,3
19,6,0,19,193,survey-likert,193,947594,2077.0,0.0,0.3,question_agency,question_agency_2_Lickert,-30.0,79,1287.0,10.0,8.0,0.0,0.0,0.0,0.0,4
16,6,0,16,217,survey-likert,217,1062017,1537.0,0.0,0.3,question_agency,question_agency_2_Lickert,-30.0,99,1489.0,8.0,5.0,0.0,0.0,0.0,0.0,5
23,6,0,23,53,survey-likert,53,215570,3251.0,0.0,0.4,question_agency,question_agency_2_Lickert,-40.0,100,2482.0,9.0,6.0,0.0,0.0,0.0,0.0,1
20,6,0,20,89,survey-likert,89,402630,3568.0,0.0,0.4,question_agency,question_agency_2_Lickert,-40.0,93,9490.0,4.0,6.0,0.0,0.0,0.0,0.0,2
21,6,0,21,137,survey-likert,137,645358,10534.0,100.0,0.4,question_agency,question_agency_2_Lickert,60.0,97,7387.0,8.0,6.0,0.0,0.0,0.0,0.0,3
22,6,0,22,177,survey-likert,177,874598,4682.0,0.0,0.4,question_agency,question_agency_2_Lickert,-40.0,89,17362.0,5.0,7.0,0.0,0.0,0.0,0.0,4
24,6,0,24,197,survey-likert,197,964401,6503.0,100.0,0.4,question_agency,question_agency_2_Lickert,60.0,87,4120.0,4.0,7.0,0.0,0.0,0.0,0.0,5
29,6,0,29,61,survey-likert,61,243851,3488.0,0.0,0.5,question_agency,question_agency_2_Lickert,-50.0,100,2951.0,8.0,6.0,0.0,0.0,0.0,0.0,1
27,6,0,27,77,survey-likert,77,322647,10256.0,0.0,0.5,question_agency,question_agency_2_Lickert,-50.0,96,5256.0,7.0,7.0,0.0,0.0,0.0,0.0,2
25,6,0,25,149,survey-likert,149,699339,3218.0,0.0,0.5,question_agency,question_agency_2_Lickert,-50.0,97,3300.0,8.0,8.0,0.0,0.0,0.0,0.0,3
26,6,0,26,169,survey-likert,169,827622,20255.0,0.0,0.5,question_agency,question_agency_2_Lickert,-50.0,99,3531.0,8.0,9.0,0.0,0.0,0.0,0.0,4
28,6,0,28,201,survey-likert,201,989953,12422.0,0.0,0.5,question_agency,question_agency_2_Lickert,-50.0,93,3893.0,6.0,4.0,0.0,0.0,0.0,0.0,5
31,6,0,31,33,survey-likert,33,141575,2540.0,100.0,0.6,question_agency,question_agency_2_Lickert,40.0,3,1812.0,8.0,8.0,0.0,0.0,0.0,0.0,1
30,6,0,30,97,survey-likert,97,440802,4821.0,0.0,0.6,question_agency,question_agency_2_Lickert,-60.0,100,3205.0,6.0,8.0,0.0,0.0,0.0,0.0,2
34,6,0,34,117,survey-likert,117,529358,4871.0,0.0,0.6,question_agency,question_agency_2_Lickert,-60.0,75,3711.0,7.0,6.0,0.0,0.0,0.0,0.0,3
33,6,0,33,173,survey-likert,173,843695,3514.0,0.0,0.6,question_agency,question_agency_2_Lickert,-60.0,93,17194.0,9.0,8.0,0.0,0.0,0.0,0.0,4
32,6,0,32,225,survey-likert,225,1090255,2923.0,0.0,0.6,question_agency,question_agency_2_Lickert,-60.0,88,1862.0,8.0,7.0,0.0,0.0,0.0,0.0,5
38,6,0,38,25,survey-likert,25,114139,2608.0,0.0,0.7,question_agency,question_agency_2_Lickert,-70.0,91,1811.0,10.0,11.0,0.0,0.0,0.0,0.0,1
39,6,0,39,85,survey-likert,85,383307,4895.0,0.0,0.7,question_agency,question_agency_2_Lickert,-70.0,100,6704.0,7.0,5.0,0.0,0.0,0.0,0.0,2
36,6,0,36,129,survey-likert,129,601699,9683.0,0.0,0.7,question_agency,question_agency_2_Lickert,-70.0,24,6697.0,7.0,8.0,0.0,0.0,0.0,0.0,3
35,6,0,35,185,survey-likert,185,920572,3339.0,100.0,0.7,question_agency,question_agency_2_Lickert,30.0,87,1359.0,8.0,8.0,0.0,0.0,0.0,0.0,4
37,6,0,37,237,survey-likert,237,1130368,3285.0,0.0,0.7,question_agency,question_agency_2_Lickert,-70.0,100,2104.0,9.0,3.0,0.0,0.0,0.0,0.0,5
43,6,0,43,45,survey-likert,45,185828,3644.0,0.0,0.8,question_agency,question_agency_2_Lickert,-80.0,98,3165.0,7.0,5.0,0.0,0.0,0.0,0.0,1
42,6,0,42,81,survey-likert,81,366499,29556.0,0.0,0.8,question_agency,question_agency_2_Lickert,-80.0,65,2881.0,7.0,5.0,0.0,0.0,0.0,0.0,2
41,6,0,41,109,survey-likert,109,485944,5203.0,0.0,0.8,question_agency,question_agency_2_Lickert,-80.0,77,9926.0,10.0,5.0,0.0,0.0,0.0,0.0,3
40,6,0,40,181,survey-likert,181,905909,4926.0,0.0,0.8,question_agency,question_agency_2_Lickert,-80.0,100,2315.0,5.0,5.0,0.0,0.0,0.0,0.0,4
44,6,0,44,209,survey-likert,209,1031587,11918.0,0.0,0.8,question_agency,question_agency_2_Lickert,-80.0,91,4189.0,7.0,9.0,0.0,0.0,0.0,0.0,5
47,6,0,47,21,survey-likert,21,99621,3236.0,0.0,0.9,question_agency,question_agency_2_Lickert,-90.0,100,2898.0,6.0,8.0,0.0,0.0,0.0,0.0,1
48,6,0,48,73,survey-likert,73,300813,2759.0,100.0,0.9,question_agency,question_agency_2_Lickert,10.0,78,2548.0,5.0,7.0,0.0,0.0,0.0,0.0,2
49,6,0,49,141,survey-likert,141,665051,3246.0,0.0,0.9,question_agency,question_agency_2_Lickert,-90.0,98,5186.0,7.0,6.0,0.0,0.0,0.0,0.0,3
45,6,0,45,157,survey-likert,157,740909,8745.0,0.0,0.9,question_agency,question_agency_2_Lickert,-90.0,88,17796.0,4.0,7.0,0.0,0.0,0.0,0.0,4
46,6,0,46,221,survey-likert,221,1075618,3101.0,0.0,0.9,question_agency,question_agency_2_Lickert,-90.0,72,2692.0,7.0,6.0,0.0,0.0,0.0,0.0,5
50,6,0,50,41,survey-likert,41,170827,2943.0,0.0,1.0,question_agency,question_agency_2_Lickert,-100.0,93,2339.0,9.0,6.0,0.0,0.0,0.0,0.0,1
54,6,0,54,69,survey-likert,69,286810,3642.0,0.0,1.0,question_agency,question_agency_2_Lickert,-100.0,100,2219.0,9.0,8.0,0.0,0.0,0.0,0.0,2
51,6,0,51,145,survey-likert,145,681995,2656.0,0.0,1.0,question_agency,question_agency_2_Lickert,-100.0,100,5038.0,6.0,8.0,0.0,0.0,0.0,0.0,3
53,6,0,53,165,survey-likert,165,795145,6784.0,0.0,1.0,question_agency,question_agency_2_Lickert,-100.0,96,3210.0,8.0,8.0,0.0,0.0,0.0,0.0,4
52,6,0,52,229,survey-likert,229,1103165,2028.0,0.0,1.0,question_agency,question_agency_2_Lickert,-100.0,95,1809.0,6.0,4.0,0.0,0.0,0.0,0.0,5
3,7,1,3,41,survey-likert,41,180107,3077.0,0.0,0.0,question_agency,question_agency_2_Lickert,0.0,100,3058.0,6.0,7.0,23.0,12.0,-0.1496520124772578,0.05628576951666563,1
4,7,1,4,77,survey-likert,77,332579,4180.0,0.0,0.0,question_agency,question_agency_2_Lickert,0.0,100,1887.0,8.0,9.0,36.0,10.0,-0.10888908979894063,0.11791203333365621,2
1,7,1,1,149,survey-likert,149,610004,4684.0,0.0,0.0,question_agency,question_agency_2_Lickert,0.0,100,1893.0,6.0,8.0,0.0,0.0,0.0,0.0,3
0,7,1,0,165,survey-likert,165,676666,2546.0,0.0,0.0,question_agency,question_agency_2_Lickert,0.0,100,2207.0,5.0,6.0,0.0,0.0,0.0,0.0,4
2,7,1,2,217,survey-likert,217,883346,2740.0,0.0,0.0,question_agency,question_agency_2_Lickert,0.0,100,2047.0,11.0,8.0,0.0,0.0,0.0,0.0,5
8,7,1,8,61,survey-likert,61,258410,4480.0,0.0,0.1,question_agency,question_agency_2_Lickert,-10.0,59,2576.0,7.0,7.0,38.0,0.0,0.07531450387774181,0.0,1
6,7,1,6,101,survey-likert,101,414853,4578.0,0.0,0.1,question_agency,question_agency_2_Lickert,-10.0,95,3853.0,10.0,9.0,55.0,10.0,-0.040043024783222546,-0.21051665779365722,2
9,7,1,9,129,survey-likert,129,533772,11070.0,0.0,0.1,question_agency,question_agency_2_Lickert,-10.0,81,2798.0,7.0,5.0,0.0,0.0,0.0,0.0,3
5,7,1,5,173,survey-likert,173,708618,4373.0,0.0,0.1,question_agency,question_agency_2_Lickert,-10.0,98,1399.0,7.0,6.0,0.0,0.0,0.0,0.0,4
7,7,1,7,209,survey-likert,209,857645,7402.0,0.0,0.1,question_agency,question_agency_2_Lickert,-10.0,100,1716.0,4.0,9.0,0.0,0.0,0.0,0.0,5
13,7,1,13,57,survey-likert,57,241731,2268.0,0.0,0.2,question_agency,question_agency_2_Lickert,-20.0,64,3192.0,3.0,10.0,43.0,16.0,-0.08965536786204326,0.051676257810197,1
12,7,1,12,89,survey-likert,89,374257,4216.0,0.0,0.2,question_agency,question_agency_2_Lickert,-20.0,73,1472.0,6.0,6.0,6.0,6.0,-0.23776843861053562,0.2156278840606176,2
14,7,1,14,117,survey-likert,117,472923,2073.0,0.0,0.2,question_agency,question_agency_2_Lickert,-20.0,85,1463.0,4.0,3.0,11.0,8.0,-0.20630967348303195,-0.05491117835484087,3
10,7,1,10,177,survey-likert,177,724979,6623.0,0.0,0.2,question_agency,question_agency_2_Lickert,-20.0,91,1779.0,7.0,9.0,0.0,0.0,0.0,0.0,4
11,7,1,11,233,survey-likert,233,938818,2427.0,0.0,0.2,question_agency,question_agency_2_Lickert,-20.0,26,1160.0,6.0,6.0,12.0,9.0,-0.22791744236160308,-0.006334035132379857,5
16,7,1,16,49,survey-likert,49,209891,3720.0,0.0,0.3,question_agency,question_agency_2_Lickert,-30.0,98,1824.0,5.0,8.0,7.0,6.0,0.4210531675659635,0.2769045763300352,1
15,7,1,15,65,survey-likert,65,274412,4415.0,0.0,0.3,question_agency,question_agency_2_Lickert,-30.0,94,2589.0,8.0,10.0,8.0,14.0,0.02514774570414566,0.4113131257043371,2
18,7,1,18,137,survey-likert,137,563675,3944.0,0.0,0.3,question_agency,question_agency_2_Lickert,-30.0,100,1840.0,6.0,8.0,0.0,0.0,0.0,0.0,3
19,7,1,19,193,survey-likert,193,791530,9079.0,0.0,0.3,question_agency,question_agency_2_Lickert,-30.0,100,1863.0,6.0,7.0,0.0,0.0,0.0,0.0,4
17,7,1,17,201,survey-likert,201,822523,4184.0,0.0,0.3,question_agency,question_agency_2_Lickert,-30.0,98,2462.0,9.0,6.0,0.0,0.0,0.0,0.0,5
22,7,1,22,45,survey-likert,45,195300,3120.0,0.0,0.4,question_agency,question_agency_2_Lickert,-40.0,94,1865.0,7.0,4.0,12.0,10.0,-0.12752048004868027,-0.3812872222211997,1
20,7,1,20,69,survey-likert,69,304654,18638.0,0.0,0.4,question_agency,question_agency_2_Lickert,-40.0,80,1647.0,7.0,6.0,8.0,5.0,0.3693093205674872,0.21775142060139507,2
23,7,1,23,125,survey-likert,125,510026,11610.0,0.0,0.4,question_agency,question_agency_2_Lickert,-40.0,64,3671.0,8.0,7.0,0.0,0.0,0.0,0.0,3
21,7,1,21,189,survey-likert,189,770956,6083.0,0.0,0.4,question_agency,question_agency_2_Lickert,-40.0,92,2485.0,7.0,5.0,0.0,0.0,0.0,0.0,4
24,7,1,24,225,survey-likert,225,910362,2886.0,0.0,0.4,question_agency,question_agency_2_Lickert,-40.0,90,4830.0,7.0,7.0,6.0,4.0,0.08232324553777583,0.1496280568892301,5
29,7,1,29,33,survey-likert,33,148932,2003.0,0.0,0.5,question_agency,question_agency_2_Lickert,-50.0,64,3808.0,9.0,9.0,12.0,12.0,-0.08853686830964574,0.38620952229172795,1
27,7,1,27,73,survey-likert,73,318055,2746.0,0.0,0.5,question_agency,question_agency_2_Lickert,-50.0,69,1331.0,6.0,6.0,14.0,14.0,0.3117624932509421,-0.20296085293687346,2
28,7,1,28,121,survey-likert,121,486763,3372.0,0.0,0.5,question_agency,question_agency_2_Lickert,-50.0,100,2646.0,4.0,8.0,0.0,0.0,0.0,0.0,3
26,7,1,26,161,survey-likert,161,663693,7039.0,0.0,0.5,question_agency,question_agency_2_Lickert,-50.0,100,1414.0,7.0,7.0,0.0,0.0,0.0,0.0,4
25,7,1,25,205,survey-likert,205,839634,5642.0,0.0,0.5,question_agency,question_agency_2_Lickert,-50.0,100,1658.0,5.0,5.0,0.0,0.0,0.0,0.0,5
31,7,1,31,53,survey-likert,53,228499,7770.0,100.0,0.6,question_agency,question_agency_2_Lickert,40.0,70,1950.0,8.0,6.0,12.0,12.0,-0.011244202817829457,-0.06751640437357302,1
33,7,1,33,81,survey-likert,81,347226,3746.0,100.0,0.6,question_agency,question_agency_2_Lickert,40.0,75,1231.0,6.0,3.0,14.0,8.0,-0.0562496354274601,-0.03710919782554959,2
34,7,1,34,113,survey-likert,113,458931,3049.0,100.0,0.6,question_agency,question_agency_2_Lickert,40.0,39,2904.0,6.0,6.0,11.0,8.0,0.07994498731728218,0.022496110647764675,3
30,7,1,30,153,survey-likert,153,623892,2988.0,0.0,0.6,question_agency,question_agency_2_Lickert,-60.0,100,3566.0,8.0,7.0,0.0,0.0,0.0,0.0,4
32,7,1,32,197,survey-likert,197,806594,4197.0,0.0,0.6,question_agency,question_agency_2_Lickert,-60.0,96,2738.0,8.0,8.0,0.0,0.0,0.0,0.0,5
37,7,1,37,21,survey-likert,21,102835,4641.0,100.0,0.7,question_agency,question_agency_2_Lickert,30.0,78,4253.0,6.0,6.0,11.0,15.0,0.05142208657384831,0.06581715093401914,1
39,7,1,39,105,survey-likert,105,430987,3271.0,100.0,0.7,question_agency,question_agency_2_Lickert,30.0,60,2320.0,5.0,8.0,5.0,6.0,-0.1934995985925232,-0.26123917009667413,2
38,7,1,38,141,survey-likert,141,576339,1820.0,0.0,0.7,question_agency,question_agency_2_Lickert,-70.0,100,2433.0,4.0,5.0,0.0,0.0,0.0,0.0,3
36,7,1,36,181,survey-likert,181,738162,2389.0,0.0,0.7,question_agency,question_agency_2_Lickert,-70.0,90,2311.0,7.0,5.0,0.0,0.0,0.0,0.0,4
35,7,1,35,229,survey-likert,229,926330,2128.0,100.0,0.7,question_agency,question_agency_2_Lickert,30.0,46,1056.0,8.0,5.0,8.0,7.0,0.031665219185656686,-0.16735715674352117,5
41,7,1,41,37,survey-likert,37,165340,3593.0,100.0,0.8,question_agency,question_agency_2_Lickert,20.0,56,2675.0,5.0,8.0,16.0,13.0,-0.47217410046251407,0.023787699103526554,1
42,7,1,42,85,survey-likert,85,359068,1605.0,0.0,0.8,question_agency,question_agency_2_Lickert,0.0,80,1965.0,7.0,9.0,8.0,10.0,-0.5440420609392911,0.22657764126072025,2
44,7,1,44,145,survey-likert,145,590307,2527.0,0.0,0.8,question_agency,question_agency_2_Lickert,-80.0,73,6006.0,6.0,7.0,0.0,0.0,0.0,0.0,3
40,7,1,40,157,survey-likert,157,644762,8409.0,0.0,0.8,question_agency,question_agency_2_Lickert,-80.0,100,2887.0,5.0,10.0,0.0,0.0,0.0,0.0,4
43,7,1,43,237,survey-likert,237,950812,1822.0,100.0,0.8,question_agency,question_agency_2_Lickert,20.0,67,1773.0,7.0,6.0,9.0,8.0,0.22405540116031256,-0.3735138929887961,5
49,7,1,49,29,survey-likert,29,134707,3261.0,100.0,0.9,question_agency,question_agency_2_Lickert,10.0,86,3214.0,8.0,6.0,8.0,8.0,0.025642700663551142,-0.19250310544040225,1
46,7,1,46,97,survey-likert,97,399378,2262.0,100.0,0.9,question_agency,question_agency_2_Lickert,10.0,99,1889.0,7.0,11.0,7.0,4.0,-0.43310247040042554,0.269904952413538,2
45,7,1,45,133,survey-likert,133,549067,3487.0,0.0,0.9,question_agency,question_agency_2_Lickert,-90.0,99,1655.0,7.0,8.0,0.0,0.0,0.0,0.0,3
47,7,1,47,185,survey-likert,185,753394,3907.0,0.0,0.9,question_agency,question_agency_2_Lickert,-90.0,100,2470.0,8.0,8.0,0.0,0.0,0.0,0.0,4
48,7,1,48,221,survey-likert,221,897091,2684.0,0.0,0.9,question_agency,question_agency_2_Lickert,-90.0,99,1372.0,6.0,6.0,0.0,0.0,0.0,0.0,5
52,7,1,52,25,survey-likert,25,119435,3328.0,100.0,1.0,question_agency,question_agency_2_Lickert,0.0,100,2999.0,8.0,9.0,14.0,6.0,0.05542845223441429,-0.2952978265625787,1
54,7,1,54,93,survey-likert,93,386212,1472.0,100.0,1.0,question_agency,question_agency_2_Lickert,0.0,100,1895.0,8.0,6.0,12.0,10.0,-0.21780029700278145,-0.0872490436307852,2
53,7,1,53,109,survey-likert,109,444987,2669.0,100.0,1.0,question_agency,question_agency_2_Lickert,0.0,100,1881.0,6.0,7.0,7.0,5.0,-0.05656786115233075,0.7064803025999876,3
50,7,1,50,169,survey-likert,169,692387,4498.0,0.0,1.0,question_agency,question_agency_2_Lickert,-100.0,100,2845.0,7.0,7.0,0.0,0.0,0.0,0.0,4
51,7,1,51,213,survey-likert,213,869563,1196.0,0.0,1.0,question_agency,question_agency_2_Lickert,-100.0,99,2047.0,7.0,7.0,0.0,0.0,0.0,0.0,5
3,8,1,3,37,survey-likert,37,240114,3377.0,0.0,0.0,question_agency,question_agency_2_Lickert,0.0,98,7709.0,9.0,10.0,12.0,8.0,0.015427750431738094,-0.4008771184763267,1
2,8,1,2,93,survey-likert,93,481171,3373.0,0.0,0.0,question_agency,question_agency_2_Lickert,0.0,100,1741.0,10.0,6.0,36.0,12.0,-0.03462946995649256,0.05988777396630201,2
4,8,1,4,133,survey-likert,133,632270,2784.0,0.0,0.0,question_agency,question_agency_2_Lickert,0.0,99,2116.0,7.0,4.0,51.0,4.0,-0.22719354265008568,-0.06579382513619901,3
0,8,1,0,153,survey-likert,153,705649,3974.0,0.0,0.0,question_agency,question_agency_2_Lickert,0.0,100,2185.0,7.0,6.0,46.0,4.0,-0.13018377284411034,-0.06547513149352178,4
1,8,1,1,197,survey-likert,197,867446,3041.0,0.0,0.0,question_agency,question_agency_2_Lickert,0.0,100,1762.0,8.0,5.0,63.0,4.0,-0.1742018603075848,-0.041526471072511006,5
7,8,1,7,53,survey-likert,53,312896,4093.0,0.0,0.1,question_agency,question_agency_2_Lickert,-10.0,98,2092.0,8.0,5.0,60.0,4.0,-0.1458966190384652,0.22006587847725873,1
6,8,1,6,69,survey-likert,69,380694,3129.0,0.0,0.1,question_agency,question_agency_2_Lickert,-10.0,92,2228.0,7.0,8.0,49.0,6.0,0.157756031279115,0.3718711990023738,2
5,8,1,5,149,survey-likert,149,690941,3648.0,0.0,0.1,question_agency,question_agency_2_Lickert,-10.0,77,1724.0,8.0,7.0,26.0,6.0,-0.02572965852994837,0.08877083058208542,3
9,8,1,9,193,survey-likert,193,853529,3189.0,0.0,0.1,question_agency,question_agency_2_Lickert,-10.0,93,1867.0,10.0,6.0,43.0,20.0,-0.1734198206158553,0.22864345018474758,4
8,8,1,8,237,survey-likert,237,1015970,3685.0,0.0,0.1,question_agency,question_agency_2_Lickert,-10.0,56,1500.0,5.0,7.0,29.0,1.0,0.12722466202004348,-0.3794804657327014,5
10,8,1,10,57,survey-likert,57,326990,2988.0,0.0,0.2,question_agency,question_agency_2_Lickert,-20.0,84,4064.0,7.0,6.0,52.0,20.0,-0.3092307213399812,0.2680469725157334,1
14,8,1,14,89,survey-likert,89,465622,4074.0,0.0,0.2,question_agency,question_agency_2_Lickert,-20.0,47,3162.0,7.0,8.0,62.0,14.0,-0.1020044741941796,0.1266557696055068,2
13,8,1,13,113,survey-likert,113,561886,2941.0,0.0,0.2,question_agency,question_agency_2_Lickert,-20.0,66,2331.0,8.0,9.0,70.0,4.0,-0.07053271279611217,0.1203955986344787,3
11,8,1,11,173,survey-likert,173,781438,6346.0,0.0,0.2,question_agency,question_agency_2_Lickert,-20.0,38,2231.0,8.0,8.0,34.0,5.0,-0.06643405344337042,0.017183362856165545,4
12,8,1,12,217,survey-likert,217,941533,2780.0,0.0,0.2,question_agency,question_agency_2_Lickert,-20.0,84,1843.0,7.0,7.0,27.0,4.0,0.09475751949194083,-0.09093869158574198,5
16,8,1,16,49,survey-likert,49,297570,3116.0,0.0,0.3,question_agency,question_agency_2_Lickert,-30.0,91,2221.0,6.0,4.0,36.0,6.0,-0.19074326855942314,0.06718708854229034,1
18,8,1,18,85,survey-likert,85,450841,4756.0,0.0,0.3,question_agency,question_agency_2_Lickert,-30.0,48,1699.0,7.0,8.0,44.0,15.0,0.08646160760407878,-0.33689606722831406,2
19,8,1,19,137,survey-likert,137,646386,2992.0,0.0,0.3,question_agency,question_agency_2_Lickert,-30.0,69,2221.0,8.0,9.0,55.0,14.0,-0.1497479003544328,0.10915983225996076,3
15,8,1,15,169,survey-likert,169,764596,4509.0,0.0,0.3,question_agency,question_agency_2_Lickert,-30.0,57,1484.0,6.0,6.0,41.0,4.0,-0.008893001028615403,0.11680889212327196,4
17,8,1,17,213,survey-likert,213,928043,2873.0,100.0,0.3,question_agency,question_agency_2_Lickert,70.0,25,1696.0,6.0,5.0,17.0,4.0,0.47556706086046985,-0.10826644509589532,5
22,8,1,22,61,survey-likert,61,345451,5384.0,100.0,0.4,question_agency,question_agency_2_Lickert,60.0,26,8174.0,7.0,7.0,25.0,26.0,0.1280697689607028,0.3387280553758941,1
21,8,1,21,73,survey-likert,73,396190,4257.0,100.0,0.4,question_agency,question_agency_2_Lickert,60.0,11,4216.0,6.0,9.0,46.0,14.0,0.06079318333822041,0.2617825038613447,2
23,8,1,23,125,survey-likert,125,604668,3605.0,0.0,0.4,question_agency,question_agency_2_Lickert,-40.0,59,1891.0,7.0,4.0,44.0,8.0,-0.0023905847502323743,-0.10172400717181848,3
20,8,1,20,185,survey-likert,185,823591,2552.0,0.0,0.4,question_agency,question_agency_2_Lickert,-40.0,56,1722.0,9.0,8.0,27.0,5.0,0.1605626979822499,-0.14723033252470386,4
24,8,1,24,233,survey-likert,233,1002133,4298.0,0.0,0.4,question_agency,question_agency_2_Lickert,-40.0,48,1138.0,8.0,11.0,24.0,13.0,0.08274389916894342,-0.09173245220024373,5
28,8,1,28,45,survey-likert,45,283536,11665.0,0.0,0.5,question_agency,question_agency_2_Lickert,-50.0,49,1909.0,6.0,7.0,27.0,9.0,-0.26272061675537745,-0.14012347837983988,1
26,8,1,26,81,survey-likert,81,435383,10867.0,100.0,0.5,question_agency,question_agency_2_Lickert,50.0,14,1689.0,8.0,7.0,27.0,24.0,-0.11997428401277341,-0.1934324698217311,2
29,8,1,29,121,survey-likert,121,589116,2738.0,100.0,0.5,question_agency,question_agency_2_Lickert,50.0,55,2940.0,6.0,7.0,31.0,8.0,0.03267345118460543,0.3011682915131063,3
25,8,1,25,161,survey-likert,161,733532,3493.0,100.0,0.5,question_agency,question_agency_2_Lickert,50.0,73,2427.0,5.0,5.0,24.0,6.0,0.08484375116199085,0.32849155059743257,4
27,8,1,27,209,survey-likert,209,913677,3304.0,0.0,0.5,question_agency,question_agency_2_Lickert,-50.0,27,2487.0,8.0,5.0,22.0,7.0,0.19203258332121598,0.2103055300735752,5
33,8,1,33,29,survey-likert,29,202505,4140.0,100.0,0.6,question_agency,question_agency_2_Lickert,40.0,56,8720.0,9.0,7.0,7.0,3.0,-0.5160736901057847,0.30787450981687553,1
31,8,1,31,77,survey-likert,77,412625,3209.0,100.0,0.6,question_agency,question_agency_2_Lickert,40.0,74,2882.0,5.0,8.0,38.0,8.0,-0.005669181989001945,-0.44364151340346963,2
34,8,1,34,141,survey-likert,141,660982,3367.0,100.0,0.6,question_agency,question_agency_2_Lickert,40.0,57,2245.0,7.0,8.0,24.0,16.0,-0.150224130982815,0.09143843373303347,3
30,8,1,30,181,survey-likert,181,810059,3342.0,100.0,0.6,question_agency,question_agency_2_Lickert,40.0,65,1971.0,9.0,8.0,17.0,4.0,-0.017816289567238887,-0.28092001597043403,4
32,8,1,32,221,survey-likert,221,954408,2025.0,100.0,0.6,question_agency,question_agency_2_Lickert,40.0,78,2203.0,8.0,7.0,30.0,6.0,0.15399610495811733,0.13495422658159953,5
37,8,1,37,41,survey-likert,41,260375,3536.0,100.0,0.7,question_agency,question_agency_2_Lickert,30.0,91,2484.0,4.0,5.0,19.0,2.0,0.230617786517906,-0.35294706965604644,1
39,8,1,39,101,survey-likert,101,511260,2947.0,100.0,0.7,question_agency,question_agency_2_Lickert,30.0,90,3138.0,5.0,6.0,29.0,6.0,-0.08381564726366135,-0.01643422468656438,2
35,8,1,35,117,survey-likert,117,575944,2716.0,100.0,0.7,question_agency,question_agency_2_Lickert,30.0,87,1425.0,8.0,9.0,37.0,6.0,0.04636385064770306,0.14463390566298967,3
38,8,1,38,165,survey-likert,165,747608,2632.0,100.0,0.7,question_agency,question_agency_2_Lickert,30.0,85,3465.0,7.0,8.0,20.0,2.0,-0.18822303987825964,-0.004908888472326606,4
36,8,1,36,201,survey-likert,201,880815,2594.0,100.0,0.7,question_agency,question_agency_2_Lickert,30.0,97,2446.0,7.0,8.0,25.0,8.0,0.3082951557723467,-0.05539017641801568,5
41,8,1,41,21,survey-likert,21,162814,9767.0,100.0,0.8,question_agency,question_agency_2_Lickert,20.0,63,11551.0,8.0,7.0,12.0,3.0,0.11420611303441768,0.07401898499117854,1
44,8,1,44,105,survey-likert,105,526585,3171.0,100.0,0.8,question_agency,question_agency_2_Lickert,20.0,95,2356.0,7.0,6.0,28.0,4.0,0.33692615536593934,0.1876974983800595,2
43,8,1,43,109,survey-likert,109,543880,5930.0,100.0,0.8,question_agency,question_agency_2_Lickert,20.0,91,6056.0,9.0,7.0,30.0,6.0,0.23097898177895143,0.36298043310606654,3
42,8,1,42,157,survey-likert,157,719110,2268.0,100.0,0.8,question_agency,question_agency_2_Lickert,20.0,90,1921.0,10.0,11.0,23.0,6.0,0.181923441581948,-0.2588036142528422,4
40,8,1,40,229,survey-likert,229,986193,7755.0,100.0,0.8,question_agency,question_agency_2_Lickert,20.0,94,2630.0,7.0,6.0,15.0,5.0,-0.457870474335771,-0.06514048401214562,5
49,8,1,49,33,survey-likert,33,223535,3298.0,100.0,0.9,question_agency,question_agency_2_Lickert,10.0,90,4191.0,6.0,6.0,10.0,5.0,0.46521915371116795,0.040317578015199654,1
48,8,1,48,65,survey-likert,65,366077,3443.0,100.0,0.9,question_agency,question_agency_2_Lickert,10.0,100,2477.0,9.0,5.0,21.0,6.0,0.004371063295908077,0.24418719371783526,2
46,8,1,46,145,survey-likert,145,676375,4133.0,100.0,0.9,question_agency,question_agency_2_Lickert,10.0,90,1899.0,9.0,10.0,27.0,8.0,-0.01960074044332203,0.20168521539471543,3
45,8,1,45,189,survey-likert,189,838463,4142.0,100.0,0.9,question_agency,question_agency_2_Lickert,10.0,100,2861.0,7.0,5.0,30.0,8.0,0.1202684063747824,-0.06724486277233416,4
47,8,1,47,205,survey-likert,205,895469,3197.0,100.0,0.9,question_agency,question_agency_2_Lickert,10.0,100,5896.0,6.0,9.0,25.0,8.0,0.3019532959091668,0.0674659132769141,5
52,8,1,52,25,survey-likert,25,186894,3506.0,100.0,1.0,question_agency,question_agency_2_Lickert,0.0,100,2461.0,4.0,8.0,8.0,3.0,-0.14169560863984587,0.43491569966747123,1
50,8,1,50,97,survey-likert,97,495373,3451.0,100.0,1.0,question_agency,question_agency_2_Lickert,0.0,100,3933.0,10.0,8.0,31.0,8.0,0.14427211403110626,0.2675901024772981,2
54,8,1,54,129,survey-likert,129,618191,2620.0,100.0,1.0,question_agency,question_agency_2_Lickert,0.0,100,2284.0,8.0,5.0,25.0,6.0,0.2466398736710456,0.017222417890942008,3
53,8,1,53,177,survey-likert,177,795425,2746.0,100.0,1.0,question_agency,question_agency_2_Lickert,0.0,100,2283.0,7.0,6.0,40.0,6.0,0.07499469447710101,-0.2273974990915111,4
51,8,1,51,225,survey-likert,225,967705,2086.0,100.0,1.0,question_agency,question_agency_2_Lickert,0.0,100,1722.0,10.0,7.0,60.0,6.0,-0.029157988489508478,-0.19839392145798307,5
2,9,0,2,49,survey-likert,49,258333,3706.0,0.0,0.0,question_agency,question_agency_2_Lickert,0.0,78,4485.0,7.0,8.0,0.0,0.0,0.0,0.0,1
4,9,0,4,69,survey-likert,69,328737,2603.0,0.0,0.0,question_agency,question_agency_2_Lickert,0.0,100,2840.0,6.0,5.0,0.0,0.0,0.0,0.0,2
0,9,0,0,149,survey-likert,149,649807,5279.0,0.0,0.0,question_agency,question_agency_2_Lickert,0.0,80,5724.0,6.0,7.0,0.0,0.0,0.0,0.0,3
3,9,0,3,165,survey-likert,165,741367,15441.0,0.0,0.0,question_agency,question_agency_2_Lickert,0.0,91,3107.0,5.0,6.0,0.0,0.0,0.0,0.0,4
1,9,0,1,201,survey-likert,201,892347,3610.0,0.0,0.0,question_agency,question_agency_2_Lickert,0.0,89,2215.0,7.0,6.0,0.0,0.0,0.0,0.0,5
5,9,0,5,29,survey-likert,29,184645,2652.0,0.0,0.1,question_agency,question_agency_2_Lickert,-10.0,84,2391.0,7.0,9.0,0.0,0.0,0.0,0.0,1
6,9,0,6,97,survey-likert,97,435886,3742.0,0.0,0.1,question_agency,question_agency_2_Lickert,-10.0,72,4983.0,7.0,5.0,0.0,0.0,0.0,0.0,2
9,9,0,9,121,survey-likert,121,537854,4167.0,0.0,0.1,question_agency,question_agency_2_Lickert,-10.0,92,3489.0,9.0,5.0,0.0,0.0,0.0,0.0,3
8,9,0,8,157,survey-likert,157,683103,3634.0,0.0,0.1,question_agency,question_agency_2_Lickert,-10.0,82,1847.0,8.0,7.0,0.0,0.0,0.0,0.0,4
7,9,0,7,197,survey-likert,197,877293,2767.0,0.0,0.1,question_agency,question_agency_2_Lickert,-10.0,100,2363.0,5.0,7.0,0.0,0.0,0.0,0.0,5
13,9,0,13,53,survey-likert,53,274878,2722.0,0.0,0.2,question_agency,question_agency_2_Lickert,-20.0,89,1646.0,7.0,5.0,0.0,0.0,0.0,0.0,1
11,9,0,11,89,survey-likert,89,407089,3433.0,100.0,0.2,question_agency,question_agency_2_Lickert,80.0,21,2588.0,7.0,8.0,0.0,0.0,0.0,0.0,2
12,9,0,12,125,survey-likert,125,552875,2501.0,0.0,0.2,question_agency,question_agency_2_Lickert,-20.0,92,2540.0,10.0,7.0,0.0,0.0,0.0,0.0,3
10,9,0,10,169,survey-likert,169,756314,2190.0,0.0,0.2,question_agency,question_agency_2_Lickert,-20.0,96,1468.0,4.0,7.0,0.0,0.0,0.0,0.0,4
14,9,0,14,221,survey-likert,221,963363,2834.0,0.0,0.2,question_agency,question_agency_2_Lickert,-20.0,100,2485.0,5.0,6.0,0.0,0.0,0.0,0.0,5
15,9,0,15,57,survey-likert,57,287929,2354.0,0.0,0.3,question_agency,question_agency_2_Lickert,-30.0,77,2267.0,5.0,8.0,0.0,0.0,0.0,0.0,1
16,9,0,16,81,survey-likert,81,374842,2554.0,0.0,0.3,question_agency,question_agency_2_Lickert,-30.0,66,2092.0,7.0,6.0,0.0,0.0,0.0,0.0,2
19,9,0,19,129,survey-likert,129,569448,4951.0,0.0,0.3,question_agency,question_agency_2_Lickert,-30.0,69,2613.0,3.0,6.0,0.0,0.0,0.0,0.0,3
17,9,0,17,161,survey-likert,161,699183,5176.0,0.0,0.3,question_agency,question_agency_2_Lickert,-30.0,82,17731.0,7.0,8.0,0.0,0.0,0.0,0.0,4
18,9,0,18,233,survey-likert,233,1013238,4563.0,0.0,0.3,question_agency,question_agency_2_Lickert,-30.0,93,2388.0,8.0,6.0,0.0,0.0,0.0,0.0,5
20,9,0,20,45,survey-likert,45,243453,3073.0,0.0,0.4,question_agency,question_agency_2_Lickert,-40.0,100,2145.0,5.0,5.0,0.0,0.0,0.0,0.0,1
24,9,0,24,65,survey-likert,65,315161,2479.0,0.0,0.4,question_agency,question_agency_2_Lickert,-40.0,88,1912.0,6.0,11.0,0.0,0.0,0.0,0.0,2
23,9,0,23,117,survey-likert,117,521165,5200.0,100.0,0.4,question_agency,question_agency_2_Lickert,60.0,7,3516.0,6.0,6.0,0.0,0.0,0.0,0.0,3
22,9,0,22,153,survey-likert,153,668508,3716.0,0.0,0.4,question_agency,question_agency_2_Lickert,-40.0,66,1847.0,5.0,9.0,0.0,0.0,0.0,0.0,4
21,9,0,21,217,survey-likert,217,949365,3525.0,0.0,0.4,question_agency,question_agency_2_Lickert,-40.0,95,1973.0,7.0,5.0,0.0,0.0,0.0,0.0,5
28,9,0,28,33,survey-likert,33,198443,2299.0,0.0,0.5,question_agency,question_agency_2_Lickert,-50.0,100,3062.0,9.0,5.0,0.0,0.0,0.0,0.0,1
29,9,0,29,73,survey-likert,73,345401,4391.0,100.0,0.5,question_agency,question_agency_2_Lickert,50.0,24,3881.0,9.0,4.0,0.0,0.0,0.0,0.0,2
26,9,0,26,133,survey-likert,133,584152,2417.0,100.0,0.5,question_agency,question_agency_2_Lickert,50.0,25,2003.0,11.0,5.0,0.0,0.0,0.0,0.0,3
25,9,0,25,173,survey-likert,173,769911,2665.0,0.0,0.5,question_agency,question_agency_2_Lickert,-50.0,89,3355.0,9.0,8.0,0.0,0.0,0.0,0.0,4
27,9,0,27,237,survey-likert,237,1027459,2761.0,0.0,0.5,question_agency,question_agency_2_Lickert,-50.0,95,1748.0,5.0,8.0,0.0,0.0,0.0,0.0,5
32,9,0,32,37,survey-likert,37,213652,3132.0,0.0,0.6,question_agency,question_agency_2_Lickert,-60.0,100,3794.0,2.0,6.0,0.0,0.0,0.0,0.0,1
33,9,0,33,77,survey-likert,77,360953,2566.0,100.0,0.6,question_agency,question_agency_2_Lickert,40.0,33,2232.0,6.0,6.0,0.0,0.0,0.0,0.0,2
30,9,0,30,109,survey-likert,109,483336,3081.0,0.0,0.6,question_agency,question_agency_2_Lickert,-60.0,100,8453.0,7.0,8.0,0.0,0.0,0.0,0.0,3
34,9,0,34,185,survey-likert,185,812777,3442.0,0.0,0.6,question_agency,question_agency_2_Lickert,-60.0,97,3271.0,9.0,6.0,0.0,0.0,0.0,0.0,4
31,9,0,31,213,survey-likert,213,934986,2342.0,0.0,0.6,question_agency,question_agency_2_Lickert,-60.0,83,1673.0,7.0,6.0,0.0,0.0,0.0,0.0,5
38,9,0,38,25,survey-likert,25,168183,4425.0,0.0,0.7,question_agency,question_agency_2_Lickert,-70.0,85,4026.0,6.0,4.0,0.0,0.0,0.0,0.0,1
35,9,0,35,101,survey-likert,101,453103,3175.0,100.0,0.7,question_agency,question_agency_2_Lickert,30.0,16,2638.0,7.0,9.0,0.0,0.0,0.0,0.0,2
36,9,0,36,113,survey-likert,113,503794,2994.0,0.0,0.7,question_agency,question_agency_2_Lickert,-70.0,86,2776.0,7.0,6.0,0.0,0.0,0.0,0.0,3
37,9,0,37,189,survey-likert,189,829223,4155.0,0.0,0.7,question_agency,question_agency_2_Lickert,-70.0,87,14852.0,6.0,10.0,0.0,0.0,0.0,0.0,4
39,9,0,39,209,survey-likert,209,920176,2160.0,0.0,0.7,question_agency,question_agency_2_Lickert,-70.0,75,3455.0,7.0,5.0,0.0,0.0,0.0,0.0,5
42,9,0,42,61,survey-likert,61,301616,2396.0,0.0,0.8,question_agency,question_agency_2_Lickert,-80.0,100,1986.0,6.0,8.0,0.0,0.0,0.0,0.0,1
40,9,0,40,85,survey-likert,85,390668,4716.0,0.0,0.8,question_agency,question_agency_2_Lickert,-80.0,51,3800.0,10.0,9.0,0.0,0.0,0.0,0.0,2
44,9,0,44,137,survey-likert,137,599412,3545.0,0.0,0.8,question_agency,question_agency_2_Lickert,-80.0,61,2711.0,6.0,7.0,0.0,0.0,0.0,0.0,3
43,9,0,43,181,survey-likert,181,798582,2073.0,0.0,0.8,question_agency,question_agency_2_Lickert,-80.0,93,1673.0,6.0,7.0,0.0,0.0,0.0,0.0,4
41,9,0,41,229,survey-likert,229,995753,2265.0,0.0,0.8,question_agency,question_agency_2_Lickert,-80.0,87,3897.0,4.0,5.0,0.0,0.0,0.0,0.0,5
46,9,0,46,21,survey-likert,21,150454,3820.0,0.0,0.9,question_agency,question_agency_2_Lickert,-90.0,100,4028.0,8.0,8.0,0.0,0.0,0.0,0.0,1
48,9,0,48,93,survey-likert,93,421168,2372.0,0.0,0.9,question_agency,question_agency_2_Lickert,-90.0,69,1966.0,6.0,6.0,0.0,0.0,0.0,0.0,2
47,9,0,47,145,survey-likert,145,632524,1938.0,0.0,0.9,question_agency,question_agency_2_Lickert,-90.0,90,2614.0,8.0,9.0,0.0,0.0,0.0,0.0,3
49,9,0,49,177,survey-likert,177,784967,2620.0,0.0,0.9,question_agency,question_agency_2_Lickert,-90.0,80,2140.0,8.0,7.0,0.0,0.0,0.0,0.0,4
45,9,0,45,225,survey-likert,225,978705,3842.0,100.0,0.9,question_agency,question_agency_2_Lickert,10.0,38,5761.0,10.0,8.0,0.0,0.0,0.0,0.0,5
54,9,0,54,41,survey-likert,41,228657,2178.0,0.0,1.0,question_agency,question_agency_2_Lickert,-100.0,100,2713.0,6.0,6.0,0.0,0.0,0.0,0.0,1
52,9,0,52,105,survey-likert,105,466863,1961.0,0.0,1.0,question_agency,question_agency_2_Lickert,-100.0,100,4232.0,6.0,6.0,0.0,0.0,0.0,0.0,2
50,9,0,50,141,survey-likert,141,613903,2759.0,0.0,1.0,question_agency,question_agency_2_Lickert,-100.0,100,7678.0,7.0,3.0,0.0,0.0,0.0,0.0,3
51,9,0,51,193,survey-likert,193,856887,3623.0,0.0,1.0,question_agency,question_agency_2_Lickert,-100.0,100,8569.0,6.0,10.0,0.0,0.0,0.0,0.0,4
53,9,0,53,205,survey-likert,205,906902,3012.0,0.0,1.0,question_agency,question_agency_2_Lickert,-100.0,100,2030.0,7.0,9.0,0.0,0.0,0.0,0.0,5
3,10,0,3,45,survey-likert,45,166658,2148.0,0.0,0.0,question_agency,question_agency_2_Lickert,0.0,100,1298.0,8.0,8.0,23.0,26.0,0.0352689958827497,-0.25714278380774014,1
0,10,0,0,73,survey-likert,73,251626,1533.0,0.0,0.0,question_agency,question_agency_2_Lickert,0.0,100,1388.0,7.0,6.0,14.0,16.0,-0.2550859178137309,0.08860301411698641,2
2,10,0,2,121,survey-likert,121,394288,2089.0,0.0,0.0,question_agency,question_agency_2_Lickert,0.0,100,2293.0,3.0,4.0,10.0,8.0,-0.19977270894473007,-0.007722660927071784,3
4,10,0,4,173,survey-likert,173,562083,1951.0,0.0,0.0,question_agency,question_agency_2_Lickert,0.0,65,716.0,7.0,4.0,0.0,0.0,0.0,0.0,4
1,10,0,1,201,survey-likert,201,655419,1569.0,0.0,0.0,question_agency,question_agency_2_Lickert,0.0,97,1067.0,8.0,10.0,0.0,0.0,0.0,0.0,5
7,10,0,7,57,survey-likert,57,203664,1899.0,0.0,0.1,question_agency,question_agency_2_Lickert,-10.0,100,1575.0,7.0,5.0,18.0,28.0,0.22431792920418317,-0.018919540760781645,1
6,10,0,6,105,survey-likert,105,346251,1710.0,0.0,0.1,question_agency,question_agency_2_Lickert,-10.0,100,1182.0,5.0,4.0,10.0,13.0,-0.14404087160658902,0.18039267803280193,2
8,10,0,8,149,survey-likert,149,482113,1588.0,0.0,0.1,question_agency,question_agency_2_Lickert,-10.0,100,1209.0,9.0,9.0,0.0,0.0,0.0,0.0,3
5,10,0,5,189,survey-likert,189,612961,2694.0,0.0,0.1,question_agency,question_agency_2_Lickert,-10.0,100,1167.0,6.0,7.0,0.0,0.0,0.0,0.0,4
9,10,0,9,229,survey-likert,229,746722,3050.0,0.0,0.1,question_agency,question_agency_2_Lickert,-10.0,33,1273.0,6.0,6.0,0.0,0.0,0.0,0.0,5
14,10,0,14,33,survey-likert,33,130396,2249.0,0.0,0.2,question_agency,question_agency_2_Lickert,-20.0,98,1712.0,7.0,11.0,13.0,9.0,-0.3726501290317114,-0.5175083103446714,1
13,10,0,13,65,survey-likert,65,227750,2566.0,0.0,0.2,question_agency,question_agency_2_Lickert,-20.0,96,913.0,8.0,7.0,17.0,18.0,-0.43362477709297237,0.04288553679275576,2
11,10,0,11,133,survey-likert,133,433313,2310.0,0.0,0.2,question_agency,question_agency_2_Lickert,-20.0,100,1390.0,6.0,6.0,0.0,0.0,0.0,0.0,3
10,10,0,10,169,survey-likert,169,549940,2871.0,0.0,0.2,question_agency,question_agency_2_Lickert,-20.0,100,1434.0,7.0,8.0,0.0,0.0,0.0,0.0,4
12,10,0,12,205,survey-likert,205,668225,2204.0,0.0,0.2,question_agency,question_agency_2_Lickert,-20.0,100,1124.0,7.0,9.0,0.0,0.0,0.0,0.0,5
16,10,0,16,61,survey-likert,61,215353,1514.0,0.0,0.3,question_agency,question_agency_2_Lickert,-30.0,100,1252.0,5.0,6.0,9.0,8.0,-0.1984045453601827,-0.012288068212831084,1
17,10,0,17,93,survey-likert,93,310963,2305.0,0.0,0.3,question_agency,question_agency_2_Lickert,-30.0,99,1183.0,7.0,7.0,15.0,13.0,-0.17245435253367553,-0.12425900212483229,2
18,10,0,18,117,survey-likert,117,381731,1721.0,0.0,0.3,question_agency,question_agency_2_Lickert,-30.0,100,1327.0,7.0,4.0,13.0,16.0,-0.15784413446140114,-0.3025997329747882,3
19,10,0,19,157,survey-likert,157,510607,3785.0,0.0,0.3,question_agency,question_agency_2_Lickert,-30.0,100,1413.0,9.0,6.0,0.0,0.0,0.0,0.0,4
15,10,0,15,221,survey-likert,221,720652,2139.0,0.0,0.3,question_agency,question_agency_2_Lickert,-30.0,80,1025.0,6.0,8.0,0.0,0.0,0.0,0.0,5
22,10,0,22,49,survey-likert,49,180536,3510.0,0.0,0.4,question_agency,question_agency_2_Lickert,-40.0,97,1183.0,7.0,6.0,16.0,11.0,0.0084296895440656,-0.21382555852434618,1
24,10,0,24,69,survey-likert,69,239551,1536.0,0.0,0.4,question_agency,question_agency_2_Lickert,-40.0,39,1196.0,8.0,10.0,12.0,12.0,0.01695671720653807,0.40183910451208554,2
23,10,0,23,113,survey-likert,113,369486,1355.0,0.0,0.4,question_agency,question_agency_2_Lickert,-40.0,100,1614.0,5.0,7.0,7.0,12.0,-0.25309109608925523,-0.18890528826644565,3
20,10,0,20,153,survey-likert,153,496178,3512.0,0.0,0.4,question_agency,question_agency_2_Lickert,-40.0,100,1490.0,9.0,4.0,0.0,0.0,0.0,0.0,4
21,10,0,21,217,survey-likert,217,708114,1667.0,0.0,0.4,question_agency,question_agency_2_Lickert,-40.0,80,1232.0,9.0,6.0,0.0,0.0,0.0,0.0,5
29,10,0,29,25,survey-likert,25,103357,1642.0,0.0,0.5,question_agency,question_agency_2_Lickert,-50.0,100,4116.0,8.0,7.0,11.0,18.0,-0.17139936076526194,-0.0988393697384702,1
27,10,0,27,89,survey-likert,89,298529,1955.0,0.0,0.5,question_agency,question_agency_2_Lickert,-50.0,70,1114.0,6.0,6.0,12.0,13.0,-0.40097786487652937,-0.4565954792540189,2
25,10,0,25,137,survey-likert,137,445422,1337.0,0.0,0.5,question_agency,question_agency_2_Lickert,-50.0,100,1709.0,11.0,9.0,0.0,0.0,0.0,0.0,3
28,10,0,28,193,survey-likert,193,624528,1801.0,0.0,0.5,question_agency,question_agency_2_Lickert,-50.0,100,1624.0,8.0,7.0,0.0,0.0,0.0,0.0,4
26,10,0,26,233,survey-likert,233,758826,1678.0,0.0,0.5,question_agency,question_agency_2_Lickert,-50.0,100,1545.0,5.0,7.0,0.0,0.0,0.0,0.0,5
31,10,0,31,41,survey-likert,41,154488,1396.0,0.0,0.6,question_agency,question_agency_2_Lickert,-60.0,95,1129.0,4.0,7.0,13.0,8.0,0.12551186608838708,-0.2551157900746509,1
33,10,0,33,101,survey-likert,101,334563,1329.0,100.0,0.6,question_agency,question_agency_2_Lickert,40.0,49,947.0,5.0,5.0,13.0,10.0,0.29730677379925646,-0.5725468228854185,2
34,10,0,34,129,survey-likert,129,420571,1855.0,0.0,0.6,question_agency,question_agency_2_Lickert,-60.0,100,1375.0,9.0,9.0,0.0,0.0,0.0,0.0,3
32,10,0,32,165,survey-likert,165,536026,2470.0,0.0,0.6,question_agency,question_agency_2_Lickert,-60.0,100,1499.0,7.0,7.0,0.0,0.0,0.0,0.0,4
30,10,0,30,209,survey-likert,209,682365,3794.0,0.0,0.6,question_agency,question_agency_2_Lickert,-60.0,99,1800.0,4.0,8.0,0.0,0.0,0.0,0.0,5
39,10,0,39,53,survey-likert,53,192405,2290.0,100.0,0.7,question_agency,question_agency_2_Lickert,30.0,51,839.0,7.0,8.0,17.0,17.0,-0.26397305390237047,-0.15423368736162116,1
38,10,0,38,81,survey-likert,81,274398,1257.0,100.0,0.7,question_agency,question_agency_2_Lickert,30.0,89,851.0,7.0,7.0,16.0,24.0,-0.16275170131315916,-0.19202992240009245,2
36,10,0,36,109,survey-likert,109,358242,1636.0,100.0,0.7,question_agency,question_agency_2_Lickert,30.0,64,634.0,7.0,7.0,12.0,25.0,-0.2791331296934044,-0.21517070990475,3
37,10,0,37,161,survey-likert,161,523148,1874.0,0.0,0.7,question_agency,question_agency_2_Lickert,-70.0,100,1363.0,7.0,6.0,0.0,0.0,0.0,0.0,4
35,10,0,35,237,survey-likert,237,773461,3907.0,0.0,0.7,question_agency,question_agency_2_Lickert,-70.0,100,1624.0,7.0,8.0,0.0,0.0,0.0,0.0,5
44,10,0,44,37,survey-likert,37,143078,2351.0,100.0,0.8,question_agency,question_agency_2_Lickert,20.0,56,1635.0,6.0,10.0,24.0,16.0,0.20757044725613022,-0.14053367545864717,1
42,10,0,42,97,survey-likert,97,323240,2076.0,100.0,0.8,question_agency,question_agency_2_Lickert,20.0,69,979.0,6.0,7.0,22.0,14.0,0.038965222633551594,-0.22391247845061607,2
40,10,0,40,125,survey-likert,125,407029,1320.0,0.0,0.8,question_agency,question_agency_2_Lickert,0.0,84,2532.0,7.0,7.0,0.0,0.0,0.0,0.0,3
41,10,0,41,181,survey-likert,181,587369,2078.0,0.0,0.8,question_agency,question_agency_2_Lickert,-80.0,100,1794.0,8.0,6.0,0.0,0.0,0.0,0.0,4
43,10,0,43,213,survey-likert,213,696165,2884.0,0.0,0.8,question_agency,question_agency_2_Lickert,-80.0,100,1279.0,10.0,12.0,0.0,0.0,0.0,0.0,5
47,10,0,47,29,survey-likert,29,117299,1466.0,100.0,0.9,question_agency,question_agency_2_Lickert,10.0,100,1972.0,7.0,6.0,31.0,31.0,-0.054328003820965524,0.0922771679240361,1
49,10,0,49,77,survey-likert,77,263733,1580.0,100.0,0.9,question_agency,question_agency_2_Lickert,10.0,100,1145.0,8.0,8.0,30.0,20.0,-0.04366200769839691,0.1630954807000441,2
45,10,0,45,141,survey-likert,141,457935,1610.0,0.0,0.9,question_agency,question_agency_2_Lickert,-90.0,87,1403.0,7.0,5.0,0.0,0.0,0.0,0.0,3
46,10,0,46,177,survey-likert,177,574685,2486.0,0.0,0.9,question_agency,question_agency_2_Lickert,-90.0,100,1070.0,3.0,5.0,0.0,0.0,0.0,0.0,4
48,10,0,48,225,survey-likert,225,732780,1972.0,0.0,0.9,question_agency,question_agency_2_Lickert,-90.0,100,1648.0,9.0,8.0,0.0,0.0,0.0,0.0,5
54,10,0,54,21,survey-likert,21,88864,3519.0,100.0,1.0,question_agency,question_agency_2_Lickert,0.0,100,4398.0,8.0,8.0,34.0,33.0,-0.08554318994373114,0.11044187733705486,1
51,10,0,51,85,survey-likert,85,286135,1802.0,100.0,1.0,question_agency,question_agency_2_Lickert,0.0,100,1425.0,6.0,6.0,81.0,23.0,0.07923588162471142,0.14799732037813054,2
50,10,0,50,145,survey-likert,145,469958,1540.0,0.0,1.0,question_agency,question_agency_2_Lickert,-100.0,100,1249.0,6.0,5.0,0.0,0.0,0.0,0.0,3
52,10,0,52,185,survey-likert,185,600158,2022.0,0.0,1.0,question_agency,question_agency_2_Lickert,-100.0,100,1267.0,8.0,7.0,0.0,0.0,0.0,0.0,4
53,10,0,53,197,survey-likert,197,637598,1782.0,0.0,1.0,question_agency,question_agency_2_Lickert,-100.0,99,7498.0,7.0,9.0,0.0,0.0,0.0,0.0,5
1,11,1,1,33,survey-likert,33,127511,1813.0,0.0,0.0,question_agency,question_agency_2_Lickert,0.0,100,2358.0,9.0,7.0,21.0,8.0,-0.09883484391260088,-0.19996742760173725,1
4,11,1,4,93,survey-likert,93,331686,1504.0,0.0,0.0,question_agency,question_agency_2_Lickert,0.0,100,1559.0,5.0,5.0,53.0,12.0,0.0711218271773372,0.04747791061337627,2
3,11,1,3,117,survey-likert,117,423109,12787.0,0.0,0.0,question_agency,question_agency_2_Lickert,0.0,50,1811.0,9.0,10.0,16.0,12.0,0.056486019320263814,0.05134436855961854,3
2,11,1,2,181,survey-likert,181,658578,4978.0,0.0,0.0,question_agency,question_agency_2_Lickert,0.0,77,1533.0,4.0,5.0,8.0,10.0,0.06979007272860237,-0.0468647291430538,4
0,11,1,0,213,survey-likert,213,767883,1761.0,0.0,0.0,question_agency,question_agency_2_Lickert,0.0,100,2139.0,7.0,6.0,31.0,9.0,0.0018009112728273307,0.0220208996558359,5
8,11,1,8,61,survey-likert,61,217726,2090.0,0.0,0.1,question_agency,question_agency_2_Lickert,-10.0,49,1214.0,6.0,6.0,18.0,18.0,-0.4152548776431837,0.10373178712785573,1
5,11,1,5,105,survey-likert,105,368265,1896.0,0.0,0.1,question_agency,question_agency_2_Lickert,-10.0,55,3436.0,5.0,4.0,32.0,8.0,0.00522269425257902,-0.5421968106478644,2
9,11,1,9,149,survey-likert,149,533787,1888.0,0.0,0.1,question_agency,question_agency_2_Lickert,-10.0,88,1113.0,9.0,7.0,8.0,73.0,0.16805647435639676,0.14774823025153078,3
7,11,1,7,173,survey-likert,173,622357,2644.0,0.0,0.1,question_agency,question_agency_2_Lickert,-10.0,96,3231.0,6.0,7.0,60.0,14.0,-0.3947279520835851,-0.0670752506404728,4
6,11,1,6,197,survey-likert,197,709575,1735.0,0.0,0.1,question_agency,question_agency_2_Lickert,-10.0,91,2741.0,7.0,10.0,34.0,12.0,-0.1243390319071398,0.09039777145721233,5
14,11,1,14,57,survey-likert,57,204633,2226.0,0.0,0.2,question_agency,question_agency_2_Lickert,-20.0,99,1992.0,10.0,6.0,9.0,19.0,0.23446069817881873,0.29643457881129465,1
12,11,1,12,85,survey-likert,85,307656,3816.0,0.0,0.2,question_agency,question_agency_2_Lickert,-20.0,44,1770.0,6.0,6.0,20.0,4.0,0.13290070837436663,0.11492579875827177,2
11,11,1,11,137,survey-likert,137,493025,3605.0,0.0,0.2,question_agency,question_agency_2_Lickert,-20.0,83,2499.0,6.0,7.0,12.0,8.0,0.015847528735978805,0.26615734498552845,3
10,11,1,10,153,survey-likert,153,547404,3493.0,0.0,0.2,question_agency,question_agency_2_Lickert,-20.0,73,4830.0,9.0,9.0,4.0,84.0,-0.011896993295913674,-0.0016798772059793252,4
13,11,1,13,221,survey-likert,221,795613,3068.0,0.0,0.2,question_agency,question_agency_2_Lickert,-20.0,82,2607.0,7.0,7.0,24.0,16.0,-0.07023727909186397,-0.44904169933774796,5
18,11,1,18,45,survey-likert,45,166303,1768.0,0.0,0.3,question_agency,question_agency_2_Lickert,-30.0,73,1190.0,6.0,7.0,19.0,6.0,-0.05370052497196287,0.03736783212402454,1
19,11,1,19,69,survey-likert,69,245877,5899.0,0.0,0.3,question_agency,question_agency_2_Lickert,-30.0,44,2052.0,9.0,7.0,28.0,13.0,-0.019070234829881783,0.1714583109466084,2
16,11,1,16,129,survey-likert,129,463181,1892.0,0.0,0.3,question_agency,question_agency_2_Lickert,-30.0,53,1606.0,5.0,8.0,18.0,9.0,-0.14170580992026777,-0.2427655332368519,3
15,11,1,15,177,survey-likert,177,642063,7466.0,0.0,0.3,question_agency,question_agency_2_Lickert,-30.0,48,2530.0,8.0,7.0,9.0,10.0,0.05268522085172276,0.20347822195098425,4
17,11,1,17,237,survey-likert,237,850510,1651.0,0.0,0.3,question_agency,question_agency_2_Lickert,-30.0,65,1044.0,2.0,5.0,20.0,4.0,-0.19174559538909505,0.42615046557113045,5
20,11,1,20,21,survey-likert,21,82783,3063.0,0.0,0.4,question_agency,question_agency_2_Lickert,-40.0,86,3519.0,8.0,8.0,17.0,14.0,0.029774616599370047,0.15835370598628268,1
24,11,1,24,65,survey-likert,65,230209,2773.0,0.0,0.4,question_agency,question_agency_2_Lickert,-40.0,73,1341.0,7.0,3.0,15.0,12.0,-0.15964188039322863,-0.42364102586937036,2
23,11,1,23,113,survey-likert,113,398467,2641.0,100.0,0.4,question_agency,question_agency_2_Lickert,60.0,48,2850.0,7.0,8.0,47.0,2.0,-0.09575092150878269,0.10412741169820952,3
22,11,1,22,189,survey-likert,189,684594,1696.0,0.0,0.4,question_agency,question_agency_2_Lickert,-40.0,39,1287.0,5.0,4.0,14.0,8.0,-0.27800770493129373,-0.16218220338634257,4
21,11,1,21,229,survey-likert,229,825488,3052.0,100.0,0.4,question_agency,question_agency_2_Lickert,60.0,59,1411.0,5.0,7.0,7.0,9.0,-0.0050278231401740545,0.12808033866622895,5
26,11,1,26,37,survey-likert,37,141191,2314.0,0.0,0.5,question_agency,question_agency_2_Lickert,-50.0,58,1731.0,6.0,4.0,6.0,19.0,-0.16330881994864127,-0.37490363334784715,1
27,11,1,27,89,survey-likert,89,320022,1588.0,100.0,0.5,question_agency,question_agency_2_Lickert,50.0,53,1146.0,7.0,6.0,31.0,2.0,0.14749154360843889,0.022665956834614035,2
28,11,1,28,141,survey-likert,141,506376,1843.0,100.0,0.5,question_agency,question_agency_2_Lickert,50.0,27,1751.0,7.0,8.0,16.0,17.0,0.0063915202355987796,0.28990651612786467,3
29,11,1,29,165,survey-likert,165,594692,5479.0,100.0,0.5,question_agency,question_agency_2_Lickert,50.0,58,1338.0,7.0,9.0,10.0,6.0,0.11052392774181799,0.35588656549490627,4
25,11,1,25,217,survey-likert,217,780524,2077.0,0.0,0.5,question_agency,question_agency_2_Lickert,-50.0,53,3001.0,8.0,6.0,33.0,20.0,-0.060393905323923795,-0.5254302486299195,5
30,11,1,30,53,survey-likert,53,192137,2813.0,100.0,0.6,question_agency,question_agency_2_Lickert,40.0,88,1297.0,11.0,9.0,15.0,8.0,0.09610590970922453,0.16563884985265243,1
32,11,1,32,101,survey-likert,101,356069,1479.0,100.0,0.6,question_agency,question_agency_2_Lickert,40.0,86,1293.0,9.0,8.0,20.0,16.0,0.1284508588527301,-0.05545299488326397,2
31,11,1,31,121,survey-likert,121,436598,2670.0,100.0,0.6,question_agency,question_agency_2_Lickert,40.0,53,2205.0,4.0,5.0,8.0,9.0,-0.249947528509075,-0.07307536423356112,3
33,11,1,33,193,survey-likert,193,697236,2342.0,100.0,0.6,question_agency,question_agency_2_Lickert,40.0,83,1763.0,5.0,5.0,14.0,16.0,0.46039796554855106,-0.07797028181605714,4
34,11,1,34,201,survey-likert,201,723751,2430.0,100.0,0.6,question_agency,question_agency_2_Lickert,40.0,72,6355.0,8.0,8.0,10.0,6.0,0.22271477947733395,0.15318166519218213,5
39,11,1,39,29,survey-likert,29,113363,3826.0,100.0,0.7,question_agency,question_agency_2_Lickert,30.0,64,3323.0,7.0,6.0,8.0,5.0,-0.26070785924216,-0.01784139668795374,1
37,11,1,37,97,survey-likert,97,344344,2090.0,100.0,0.7,question_agency,question_agency_2_Lickert,30.0,79,1241.0,9.0,7.0,35.0,22.0,-0.06706717216253959,-0.09134304540298596,2
36,11,1,36,125,survey-likert,125,450412,2603.0,100.0,0.7,question_agency,question_agency_2_Lickert,30.0,71,2009.0,4.0,6.0,7.0,6.0,-0.2526409104407844,-0.3284709451016755,3
38,11,1,38,161,survey-likert,161,576367,2150.0,100.0,0.7,question_agency,question_agency_2_Lickert,30.0,76,3837.0,6.0,5.0,6.0,7.0,0.25297240725246756,0.06462022529643252,4
35,11,1,35,233,survey-likert,233,838400,2493.0,100.0,0.7,question_agency,question_agency_2_Lickert,30.0,84,1452.0,8.0,7.0,7.0,8.0,-0.3117593465063297,-0.06259575587861914,5
42,11,1,42,49,survey-likert,49,178051,1772.0,100.0,0.8,question_agency,question_agency_2_Lickert,20.0,99,2257.0,8.0,9.0,9.0,11.0,0.05510318370536907,0.2357052700414915,1
44,11,1,44,77,survey-likert,77,276058,6810.0,100.0,0.8,question_agency,question_agency_2_Lickert,20.0,100,2597.0,6.0,6.0,11.0,13.0,-0.15747021625270605,0.44673945709084095,2
40,11,1,40,145,survey-likert,145,520997,3862.0,100.0,0.8,question_agency,question_agency_2_Lickert,20.0,99,1896.0,7.0,11.0,4.0,26.0,-0.08443728105966086,-0.15664170419984208,3
41,11,1,41,169,survey-likert,169,607848,2864.0,100.0,0.8,question_agency,question_agency_2_Lickert,20.0,97,2857.0,4.0,10.0,18.0,12.0,-0.3372422289804674,-0.16131257337932342,4
43,11,1,43,205,survey-likert,205,742446,3333.0,100.0,0.8,question_agency,question_agency_2_Lickert,20.0,66,1782.0,6.0,6.0,9.0,6.0,0.13183191724513812,0.2503071239217965,5
48,11,1,48,41,survey-likert,41,153728,1789.0,100.0,0.9,question_agency,question_agency_2_Lickert,10.0,92,1795.0,4.0,6.0,21.0,12.0,0.038890370289351835,-0.07041396122667569,1
46,11,1,46,81,survey-likert,81,293455,5793.0,100.0,0.9,question_agency,question_agency_2_Lickert,10.0,63,1376.0,7.0,7.0,16.0,10.0,-0.028784290825942346,0.1802908801181383,2
49,11,1,49,133,survey-likert,133,477380,3585.0,100.0,0.9,question_agency,question_agency_2_Lickert,10.0,98,3027.0,8.0,9.0,11.0,12.0,-0.5074133776879579,-0.05461286230706342,3
47,11,1,47,185,survey-likert,185,672693,3573.0,100.0,0.9,question_agency,question_agency_2_Lickert,10.0,83,1197.0,6.0,2.0,23.0,22.0,0.055100361374275326,0.11271292424833577,4
45,11,1,45,225,survey-likert,225,810463,3230.0,100.0,0.9,question_agency,question_agency_2_Lickert,10.0,83,3674.0,7.0,6.0,12.0,11.0,0.4802658905523853,-0.4443959147231059,5
51,11,1,51,25,survey-likert,25,97560,2252.0,100.0,1.0,question_agency,question_agency_2_Lickert,0.0,100,2968.0,6.0,7.0,23.0,20.0,0.11826784207161614,-0.015069524575635975,1
52,11,1,52,73,survey-likert,73,258445,1509.0,100.0,1.0,question_agency,question_agency_2_Lickert,0.0,100,1897.0,9.0,9.0,21.0,21.0,0.1510469406725369,-0.11849032087482855,2
54,11,1,54,109,survey-likert,109,384224,3512.0,100.0,1.0,question_agency,question_agency_2_Lickert,0.0,100,2586.0,7.0,7.0,11.0,10.0,-0.5617885368726573,-0.3099401009348108,3
53,11,1,53,157,survey-likert,157,563424,2171.0,100.0,1.0,question_agency,question_agency_2_Lickert,0.0,100,1781.0,8.0,7.0,9.0,8.0,-0.022023606800254482,-0.28664977404352,4
50,11,1,50,209,survey-likert,209,755140,2249.0,100.0,1.0,question_agency,question_agency_2_Lickert,0.0,79,1976.0,7.0,8.0,15.0,13.0,0.04331263493796878,0.13840303181939365,5
3,12,1,3,37,survey-likert,37,163081,1480.0,0.0,0.0,question_agency,question_agency_2_Lickert,0.0,100,1615.0,5.0,7.0,8.0,4.0,-0.2019094865479831,-0.11018527528213307,1
0,12,1,0,85,survey-likert,85,315553,1168.0,0.0,0.0,question_agency,question_agency_2_Lickert,0.0,100,2911.0,10.0,9.0,10.0,2.0,-0.24619213781101573,-0.11585976243138912,2
2,12,1,2,109,survey-likert,109,389121,1942.0,0.0,0.0,question_agency,question_agency_2_Lickert,0.0,100,2207.0,5.0,7.0,14.0,3.0,0.09840238344466852,-0.2629683062393622,3
4,12,1,4,181,survey-likert,181,608273,1460.0,0.0,0.0,question_agency,question_agency_2_Lickert,0.0,100,1343.0,3.0,8.0,21.0,4.0,-0.10387767191465573,-0.1247707314592337,4
1,12,1,1,213,survey-likert,213,704001,1322.0,0.0,0.0,question_agency,question_agency_2_Lickert,0.0,100,1199.0,10.0,11.0,20.0,20.0,-0.012229759937353583,0.049480647280163395,5
7,12,1,7,53,survey-likert,53,221113,1128.0,0.0,0.1,question_agency,question_agency_2_Lickert,-10.0,100,1527.0,8.0,6.0,14.0,6.0,-0.20084381021070277,-0.24734352815391872,1
5,12,1,5,101,survey-likert,101,364513,1497.0,0.0,0.1,question_agency,question_agency_2_Lickert,-10.0,99,1912.0,9.0,9.0,12.0,6.0,0.057062909190250054,-0.37373804979844555,2
6,12,1,6,117,survey-likert,117,415025,1667.0,0.0,0.1,question_agency,question_agency_2_Lickert,-10.0,100,1487.0,9.0,8.0,25.0,28.0,-0.09018577137599004,0.20433816201611799,3
9,12,1,9,177,survey-likert,177,596529,1874.0,0.0,0.1,question_agency,question_agency_2_Lickert,-10.0,100,1279.0,6.0,6.0,36.0,6.0,0.013846023321626776,-0.09934584268436189,4
8,12,1,8,209,survey-likert,209,692497,2490.0,0.0,0.1,question_agency,question_agency_2_Lickert,-10.0,100,1175.0,6.0,7.0,16.0,4.0,-0.1750135164960957,-0.055848498647653774,5
14,12,1,14,21,survey-likert,21,85820,3463.0,0.0,0.2,question_agency,question_agency_2_Lickert,-20.0,100,3615.0,8.0,7.0,4.0,5.0,-0.03445940154580761,0.010036261289326082,1
13,12,1,13,93,survey-likert,93,340585,1349.0,0.0,0.2,question_agency,question_agency_2_Lickert,-20.0,100,1120.0,5.0,9.0,23.0,2.0,-0.19516740129514087,-0.09851410659402748,2
10,12,1,10,133,survey-likert,133,461409,970.0,0.0,0.2,question_agency,question_agency_2_Lickert,-20.0,98,1447.0,9.0,8.0,32.0,16.0,0.0558551830753184,-0.08990621419426731,3
11,12,1,11,193,survey-likert,193,645233,1974.0,0.0,0.2,question_agency,question_agency_2_Lickert,-20.0,84,1519.0,7.0,9.0,28.0,18.0,0.07315143245219215,-0.12553469337765397,4
12,12,1,12,229,survey-likert,229,752361,1126.0,0.0,0.2,question_agency,question_agency_2_Lickert,-20.0,98,1023.0,6.0,4.0,12.0,12.0,-0.06106081540196148,-0.004304754068178861,5
