,SubNum,Include,level_0,index,trial_type,trial_index,time_elapsed,rt,response,control_level,task_id,screen_id,difference,Key_Release_sim_x,Key_Release_sim_y,Key_Release_p1_x,Key_Release_p1_y,Correlation_x,Correlation_y,block
3,1,1,3,49,survey-likert,49,251336,2473.0,16.666666666666668,0.0,question_agency,question_agency_7_Lickert,16.666666666666668,5.0,9.0,2.0,4.0,-0.04977022643660146,0.40689037129774414,1
2,1,1,2,77,survey-likert,77,368394,3542.0,0.0,0.0,question_agency,question_agency_7_Lickert,0.0,4.0,7.0,5.0,4.0,0.2435514299742346,0.463198971979474,2
1,1,1,1,90,survey-likert,90,418992,2855.0,0.0,0.0,question_agency,question_agency_7_Lickert,0.0,6.0,6.0,5.0,4.0,0.05117301493938158,0.14482545524342072,3
0,1,1,0,130,survey-likert,130,582143,3258.0,33.333333333333336,0.0,question_agency,question_agency_7_Lickert,33.333333333333336,7.0,4.0,0.0,0.0,0.0,0.0,4
4,1,1,4,158,survey-likert,158,698719,3534.0,0.0,0.0,question_agency,question_agency_7_Lickert,0.0,8.0,8.0,6.0,3.0,0.2756968475877932,-0.2866238476283003,5
8,1,1,8,46,survey-likert,46,239849,2956.0,16.666666666666668,0.1,question_agency,question_agency_7_Lickert,6.666666666666668,8.0,5.0,3.0,4.0,0.14673457952449048,0.37188933489259507,1
9,1,1,9,56,survey-likert,56,278978,4122.0,16.666666666666668,0.1,question_agency,question_agency_7_Lickert,6.666666666666668,6.0,10.0,5.0,2.0,0.033464273470644075,0.5477241411985808,2
5,1,1,5,117,survey-likert,117,529099,2868.0,0.0,0.1,question_agency,question_agency_7_Lickert,0.0,7.0,8.0,5.0,3.0,-0.40867525217476136,0.24349605470744415,3
6,1,1,6,133,survey-likert,133,593831,2664.0,0.0,0.1,question_agency,question_agency_7_Lickert,-10.0,7.0,6.0,6.0,4.0,0.02839999609692412,0.21880775004911238,4
7,1,1,7,173,survey-likert,173,756533,2221.0,0.0,0.1,question_agency,question_agency_7_Lickert,-10.0,7.0,8.0,3.0,5.0,-0.22361294314142616,0.009179704601503646,5
13,1,1,13,25,survey-likert,25,155561,5069.0,16.666666666666668,0.2,question_agency,question_agency_7_Lickert,-3.333333333333332,10.0,7.0,2.0,1.0,-0.30792609447115205,0.27577912237950625,1
11,1,1,11,74,survey-likert,74,355837,2139.0,16.666666666666668,0.2,question_agency,question_agency_7_Lickert,-3.333333333333332,6.0,5.0,8.0,6.0,0.016943489363924067,0.2689570055645709,2
10,1,1,10,96,survey-likert,96,442072,2624.0,16.666666666666668,0.2,question_agency,question_agency_7_Lickert,-3.333333333333332,9.0,7.0,7.0,6.0,0.07945389495465416,-0.132718124121389,3
12,1,1,12,154,survey-likert,154,679968,2624.0,33.333333333333336,0.2,question_agency,question_agency_7_Lickert,13.333333333333336,2.0,8.0,4.0,2.0,0.7499472275837593,-0.17977485587668277,4
14,1,1,14,170,survey-likert,170,745290,2378.0,16.666666666666668,0.2,question_agency,question_agency_7_Lickert,-3.333333333333332,10.0,6.0,4.0,3.0,0.4710205219275751,0.26133306928793676,5
15,1,1,15,37,survey-likert,37,204235,2260.0,50.0,0.3,question_agency,question_agency_7_Lickert,20.0,9.0,8.0,5.0,5.0,0.45288446219418554,-0.007477934699024932,1
19,1,1,19,59,survey-likert,59,291903,3909.0,33.333333333333336,0.3,question_agency,question_agency_7_Lickert,3.3333333333333357,3.0,4.0,5.0,6.0,0.6299782337441392,0.0827476869565915,2
16,1,1,16,102,survey-likert,102,466375,2950.0,16.666666666666668,0.3,question_agency,question_agency_7_Lickert,-13.333333333333332,8.0,9.0,3.0,7.0,0.31558777117040493,0.0644594209139372,3
18,1,1,18,151,survey-likert,151,668331,4350.0,0.0,0.3,question_agency,question_agency_7_Lickert,-30.0,8.0,5.0,4.0,7.0,0.12610510661388563,-0.39962366301144503,4
17,1,1,17,167,survey-likert,167,733889,2706.0,16.666666666666668,0.3,question_agency,question_agency_7_Lickert,-13.333333333333332,7.0,6.0,4.0,4.0,0.6345043280778624,-0.31512113298086136,5
24,1,1,24,31,survey-likert,31,180781,2516.0,33.333333333333336,0.4,question_agency,question_agency_7_Lickert,-6.666666666666664,9.0,7.0,5.0,4.0,0.44546354355007906,0.37750508991321263,1
21,1,1,21,83,survey-likert,83,392514,3367.0,50.0,0.4,question_agency,question_agency_7_Lickert,10.0,7.0,7.0,7.0,5.0,0.15286121923335552,0.5869233899545623,2
23,1,1,23,99,survey-likert,99,454406,3320.0,16.666666666666668,0.4,question_agency,question_agency_7_Lickert,-23.333333333333332,7.0,6.0,8.0,5.0,-0.10083505431921838,0.3219899308343626,3
22,1,1,22,145,survey-likert,145,642992,3022.0,16.666666666666668,0.4,question_agency,question_agency_7_Lickert,-23.333333333333332,5.0,7.0,7.0,5.0,0.1859438793121024,0.6739573461491932,4
20,1,1,20,164,survey-likert,164,722171,2643.0,16.666666666666668,0.4,question_agency,question_agency_7_Lickert,-23.333333333333332,10.0,4.0,6.0,4.0,0.2730318974423946,0.08903039318954785,5
29,1,1,29,22,survey-likert,22,141477,2823.0,16.666666666666668,0.5,question_agency,question_agency_7_Lickert,-33.33333333333333,8.0,6.0,5.0,7.0,-0.10911793563843358,0.37813311161027513,1
26,1,1,26,71,survey-likert,71,344676,3703.0,33.333333333333336,0.5,question_agency,question_agency_7_Lickert,-16.666666666666664,9.0,10.0,4.0,3.0,0.15788985684723264,0.0924658074931389,2
27,1,1,27,114,survey-likert,114,517215,3438.0,66.66666666666667,0.5,question_agency,question_agency_7_Lickert,16.66666666666667,2.0,7.0,6.0,4.0,0.35893432866327313,0.28661248606096645,3
28,1,1,28,142,survey-likert,142,630952,5083.0,33.333333333333336,0.5,question_agency,question_agency_7_Lickert,-16.666666666666664,7.0,4.0,8.0,6.0,-0.02728586852655228,-0.12644607651701428,4
25,1,1,25,161,survey-likert,161,710515,2786.0,33.333333333333336,0.5,question_agency,question_agency_7_Lickert,-16.666666666666664,7.0,5.0,5.0,5.0,-0.2649175681328294,0.2029819256194478,5
33,1,1,33,40,survey-likert,40,216299,3051.0,33.333333333333336,0.6,question_agency,question_agency_7_Lickert,-26.666666666666664,9.0,9.0,5.0,3.0,0.07797860012262686,-0.08651221314839992,1
34,1,1,34,65,survey-likert,65,319575,5366.0,33.333333333333336,0.6,question_agency,question_agency_7_Lickert,-26.666666666666664,8.0,7.0,4.0,3.0,-0.21325492228251616,0.10155331394298164,2
32,1,1,32,105,survey-likert,105,478903,3506.0,16.666666666666668,0.6,question_agency,question_agency_7_Lickert,-43.33333333333333,6.0,9.0,6.0,6.0,0.26027528850495385,-0.11312555472457757,3
31,1,1,31,124,survey-likert,124,557493,2372.0,33.333333333333336,0.6,question_agency,question_agency_7_Lickert,-26.666666666666664,6.0,7.0,7.0,8.0,0.5441578534191297,0.16407670792814064,4
30,1,1,30,176,survey-likert,176,769570,4020.0,16.666666666666668,0.6,question_agency,question_agency_7_Lickert,-43.33333333333333,7.0,5.0,7.0,5.0,0.2068247204266474,-0.33270404694892736,5
37,1,1,37,28,survey-likert,28,169242,4663.0,66.66666666666667,0.7,question_agency,question_agency_7_Lickert,-3.3333333333333286,9.0,9.0,5.0,6.0,0.23877445855597557,0.1829494460768423,1
39,1,1,39,62,survey-likert,62,305195,4281.0,33.333333333333336,0.7,question_agency,question_agency_7_Lickert,-36.666666666666664,6.0,8.0,6.0,5.0,-0.3101955564139345,0.13588593639352003,2
38,1,1,38,120,survey-likert,120,543992,5872.0,16.666666666666668,0.7,question_agency,question_agency_7_Lickert,-53.33333333333333,6.0,4.0,7.0,5.0,0.2741884604429083,-0.3052201231097489,3
36,1,1,36,139,survey-likert,139,616856,2489.0,33.333333333333336,0.7,question_agency,question_agency_7_Lickert,-36.666666666666664,6.0,7.0,13.0,11.0,-0.009648237049082834,0.05212570300592116,4
35,1,1,35,179,survey-likert,179,783968,5382.0,33.333333333333336,0.7,question_agency,question_agency_7_Lickert,-36.666666666666664,7.0,7.0,3.0,3.0,0.11283289167572248,-0.3212394337477296,5
44,1,1,44,34,survey-likert,34,192959,3163.0,66.66666666666667,0.8,question_agency,question_agency_7_Lickert,-13.333333333333329,5.0,8.0,5.0,4.0,-0.7112781104362682,-0.42011445265440006,1
40,1,1,40,68,survey-likert,68,331954,3366.0,66.66666666666667,0.8,question_agency,question_agency_7_Lickert,-13.333333333333329,5.0,9.0,5.0,4.0,-0.23316837144758104,0.12911027893492938,2
42,1,1,42,108,survey-likert,108,492691,4773.0,50.0,0.8,question_agency,question_agency_7_Lickert,-30.0,8.0,7.0,9.0,8.0,-0.288844950284529,0.48120063119858936,3
41,1,1,41,127,survey-likert,127,569876,3368.0,16.666666666666668,0.8,question_agency,question_agency_7_Lickert,-63.33333333333333,6.0,9.0,8.0,7.0,0.04764991602402211,-0.24697433848190203,4
43,1,1,43,185,survey-likert,185,808586,2326.0,66.66666666666667,0.8,question_agency,question_agency_7_Lickert,-13.333333333333329,7.0,8.0,6.0,7.0,0.017194866097399855,-0.45756972145655295,5
45,1,1,45,52,survey-likert,52,263218,2864.0,33.333333333333336,0.9,question_agency,question_agency_7_Lickert,-56.666666666666664,5.0,5.0,6.0,7.0,0.49633064010534245,-0.3103200021162018,1
48,1,1,48,86,survey-likert,86,405014,3480.0,16.666666666666668,0.9,question_agency,question_agency_7_Lickert,-73.33333333333333,10.0,9.0,6.0,7.0,-0.13856522951009326,0.3154594961092367,2
46,1,1,46,111,survey-likert,111,504754,3050.0,83.33333333333333,0.9,question_agency,question_agency_7_Lickert,-6.666666666666671,7.0,9.0,8.0,11.0,0.6975797876201928,-0.29159220419613346,3
47,1,1,47,148,survey-likert,148,654972,2963.0,16.666666666666668,0.9,question_agency,question_agency_7_Lickert,-73.33333333333333,5.0,5.0,9.0,11.0,-0.4940860487028257,0.19769480445834023,4
49,1,1,49,188,survey-likert,188,820775,3167.0,83.33333333333333,0.9,question_agency,question_agency_7_Lickert,-6.666666666666671,4.0,6.0,4.0,5.0,-0.03098297992234851,-0.12662121443687344,5
50,1,1,50,43,survey-likert,43,227878,2558.0,100.0,1.0,question_agency,question_agency_7_Lickert,0.0,7.0,4.0,7.0,4.0,0.1816118746693034,0.07984693592261254,1
54,1,1,54,80,survey-likert,80,380135,2728.0,100.0,1.0,question_agency,question_agency_7_Lickert,0.0,5.0,5.0,3.0,3.0,0.32545549086385306,0.049867731779267024,2
51,1,1,51,93,survey-likert,93,430413,2406.0,100.0,1.0,question_agency,question_agency_7_Lickert,0.0,6.0,8.0,7.0,5.0,0.26913233188417784,-0.045230881738851626,3
52,1,1,52,136,survey-likert,136,605351,2504.0,100.0,1.0,question_agency,question_agency_7_Lickert,0.0,7.0,8.0,9.0,7.0,-0.005943201448450521,-0.5290545067237902,4
53,1,1,53,182,survey-likert,182,797247,4800.0,83.33333333333333,1.0,question_agency,question_agency_7_Lickert,-16.66666666666667,8.0,6.0,9.0,8.0,0.026606879483679922,-0.0022959742061322576,5
3,2,1,3,40,survey-likert,40,623987,4438.0,16.666666666666668,0.0,question_agency,question_agency_7_Lickert,16.666666666666668,10.0,12.0,13.0,0.0,0.20831081855971884,0.0,1
4,2,1,4,68,survey-likert,68,790348,26496.0,16.666666666666668,0.0,question_agency,question_agency_7_Lickert,16.666666666666668,9.0,4.0,5.0,6.0,0.28049996306179953,0.19199179269976807,2
1,2,1,1,93,survey-likert,93,967582,5008.0,0.0,0.0,question_agency,question_agency_7_Lickert,0.0,9.0,9.0,9.0,7.0,0.07856784186051656,0.18754853620178663,3
0,2,1,0,145,survey-likert,145,1207431,4299.0,0.0,0.0,question_agency,question_agency_7_Lickert,0.0,5.0,6.0,11.0,12.0,0.050845719929758726,-0.4934518597161445,4
2,2,1,2,167,survey-likert,167,1312145,3791.0,0.0,0.0,question_agency,question_agency_7_Lickert,0.0,8.0,9.0,17.0,13.0,-0.15095828031373934,0.06526443736998193,5
5,2,1,5,46,survey-likert,46,656041,6104.0,66.66666666666667,0.1,question_agency,question_agency_7_Lickert,56.66666666666667,9.0,8.0,6.0,3.0,-0.035203964708572746,0.03515087004861096,1
6,2,1,6,77,survey-likert,77,836197,4163.0,16.666666666666668,0.1,question_agency,question_agency_7_Lickert,6.666666666666668,8.0,8.0,6.0,4.0,0.1853241355651924,0.18691757292838723,2
9,2,1,9,117,survey-likert,117,1078847,2940.0,50.0,0.1,question_agency,question_agency_7_Lickert,40.0,9.0,7.0,3.0,4.0,0.3971264762240163,0.15022418347181232,3
8,2,1,8,127,survey-likert,127,1124699,3909.0,0.0,0.1,question_agency,question_agency_7_Lickert,-10.0,5.0,7.0,12.0,10.0,-0.127930495288224,-0.41995820320606936,4
7,2,1,7,158,survey-likert,158,1272811,3610.0,0.0,0.1,question_agency,question_agency_7_Lickert,-10.0,6.0,7.0,15.0,12.0,-0.14055351056107873,0.3639100243855521,5
10,2,1,10,37,survey-likert,37,610291,22999.0,50.0,0.2,question_agency,question_agency_7_Lickert,30.0,6.0,8.0,8.0,4.0,0.09232661117961001,-0.2945321822130226,1
13,2,1,13,80,survey-likert,80,855532,10032.0,33.333333333333336,0.2,question_agency,question_agency_7_Lickert,13.333333333333336,10.0,8.0,5.0,2.0,0.2365807989516335,0.31361468352712685,2
11,2,1,11,90,survey-likert,90,953453,10863.0,16.666666666666668,0.2,question_agency,question_agency_7_Lickert,-3.333333333333332,7.0,8.0,3.0,7.0,-0.23499819867133,0.10674887847466913,3
12,2,1,12,142,survey-likert,142,1193934,5838.0,0.0,0.2,question_agency,question_agency_7_Lickert,-20.0,9.0,6.0,13.0,11.0,-0.021702457649393703,-0.4017099317805639,4
14,2,1,14,170,survey-likert,170,1325700,4270.0,0.0,0.2,question_agency,question_agency_7_Lickert,-20.0,7.0,10.0,31.0,28.0,0.005367219912300705,0.07352964263476541,5
19,2,1,19,34,survey-likert,34,578656,21569.0,50.0,0.3,question_agency,question_agency_7_Lickert,20.0,7.0,5.0,11.0,2.0,-0.18150685077689277,0.02990661515861185,1
18,2,1,18,56,survey-likert,56,712534,5089.0,16.666666666666668,0.3,question_agency,question_agency_7_Lickert,-13.333333333333332,6.0,8.0,5.0,8.0,0.4058731595588431,0.4603114124093699,2
15,2,1,15,120,survey-likert,120,1093026,4986.0,16.666666666666668,0.3,question_agency,question_agency_7_Lickert,-13.333333333333332,5.0,7.0,11.0,11.0,0.11779534393244082,0.09925161914425865,3
17,2,1,17,130,survey-likert,130,1140594,6802.0,0.0,0.3,question_agency,question_agency_7_Lickert,-30.0,7.0,6.0,9.0,10.0,-0.6361719026320026,-0.11938072986855217,4
16,2,1,16,182,survey-likert,182,1385136,10655.0,50.0,0.3,question_agency,question_agency_7_Lickert,20.0,12.0,8.0,8.0,7.0,-0.3272078201742143,-0.048822547479616105,5
21,2,1,21,28,survey-likert,28,531732,9081.0,33.333333333333336,0.4,question_agency,question_agency_7_Lickert,-6.666666666666664,7.0,7.0,7.0,6.0,0.18376227699645917,-0.0695463824920914,1
24,2,1,24,71,survey-likert,71,805099,5585.0,33.333333333333336,0.4,question_agency,question_agency_7_Lickert,-6.666666666666664,9.0,7.0,8.0,5.0,-0.022113056656031534,0.2068869224316048,2
22,2,1,22,114,survey-likert,114,1066560,6769.0,50.0,0.4,question_agency,question_agency_7_Lickert,10.0,8.0,7.0,5.0,6.0,0.3441798567908566,-0.12270265949042498,3
20,2,1,20,148,survey-likert,148,1221864,5414.0,0.0,0.4,question_agency,question_agency_7_Lickert,-40.0,5.0,5.0,10.0,11.0,-0.10848150792233019,-0.04437598368886074,4
23,2,1,23,185,survey-likert,185,1406623,12450.0,33.333333333333336,0.4,question_agency,question_agency_7_Lickert,-6.666666666666664,7.0,7.0,8.0,7.0,0.603960625406767,0.7500968585606401,5
25,2,1,25,25,survey-likert,25,513460,9088.0,33.333333333333336,0.5,question_agency,question_agency_7_Lickert,-16.666666666666664,6.0,5.0,6.0,7.0,-0.17073178536881176,0.05836670850323316,1
29,2,1,29,86,survey-likert,86,881592,4597.0,50.0,0.5,question_agency,question_agency_7_Lickert,0.0,4.0,5.0,6.0,3.0,0.7642351230684381,0.09070859257541258,2
27,2,1,27,99,survey-likert,99,994420,4227.0,16.666666666666668,0.5,question_agency,question_agency_7_Lickert,-33.33333333333333,5.0,7.0,7.0,6.0,-0.22947641466323482,-0.010886585476434528,3
26,2,1,26,139,survey-likert,139,1178445,3480.0,16.666666666666668,0.5,question_agency,question_agency_7_Lickert,-33.33333333333333,8.0,6.0,8.0,6.0,0.40734638258325784,-0.20653780780142653,4
28,2,1,28,161,survey-likert,161,1285744,3910.0,16.666666666666668,0.5,question_agency,question_agency_7_Lickert,-33.33333333333333,7.0,9.0,14.0,11.0,-0.052480005277968395,0.07807363108264637,5
30,2,1,30,31,survey-likert,31,547764,6822.0,50.0,0.6,question_agency,question_agency_7_Lickert,-10.0,6.0,8.0,6.0,2.0,-0.25569720592140033,0.39175025684928394,1
31,2,1,31,59,survey-likert,59,725937,4303.0,33.333333333333336,0.6,question_agency,question_agency_7_Lickert,-26.666666666666664,10.0,5.0,6.0,5.0,-0.1825862659147359,-0.44816187289828086,2
34,2,1,34,102,survey-likert,102,1010741,6395.0,16.666666666666668,0.6,question_agency,question_agency_7_Lickert,-43.33333333333333,8.0,7.0,5.0,2.0,-0.014461927690687855,0.27345031846945983,3
32,2,1,32,133,survey-likert,133,1154138,4907.0,16.666666666666668,0.6,question_agency,question_agency_7_Lickert,-43.33333333333333,7.0,7.0,10.0,10.0,-0.2313387243792428,-0.2349522805096703,4
33,2,1,33,173,survey-likert,173,1338626,4529.0,16.666666666666668,0.6,question_agency,question_agency_7_Lickert,-43.33333333333333,7.0,9.0,14.0,15.0,-0.03382127300594367,0.1612982277598889,5
39,2,1,39,52,survey-likert,52,682956,4897.0,50.0,0.7,question_agency,question_agency_7_Lickert,-20.0,11.0,9.0,7.0,7.0,-0.13766843019387318,0.22197760848831577,1
38,2,1,38,83,survey-likert,83,867952,3314.0,33.333333333333336,0.7,question_agency,question_agency_7_Lickert,-36.666666666666664,6.0,5.0,7.0,2.0,-0.1284492758439557,-0.25125049154650225,2
37,2,1,37,108,survey-likert,108,1037386,4460.0,66.66666666666667,0.7,question_agency,question_agency_7_Lickert,-3.3333333333333286,7.0,7.0,7.0,9.0,-0.16730506900192657,0.21452548044090267,3
35,2,1,35,136,survey-likert,136,1166622,3808.0,16.666666666666668,0.7,question_agency,question_agency_7_Lickert,-53.33333333333333,8.0,7.0,9.0,9.0,0.04093994128247632,-0.20132775640327102,4
36,2,1,36,188,survey-likert,188,1454811,38363.0,33.333333333333336,0.7,question_agency,question_agency_7_Lickert,-36.666666666666664,7.0,9.0,8.0,9.0,0.19897324119737847,0.13167295157368575,5
43,2,1,43,49,survey-likert,49,668690,3616.0,66.66666666666667,0.8,question_agency,question_agency_7_Lickert,-13.333333333333329,8.0,5.0,7.0,6.0,0.7027291578885827,-0.056629170280440885,1
41,2,1,41,65,survey-likert,65,754547,6763.0,66.66666666666667,0.8,question_agency,question_agency_7_Lickert,-13.333333333333329,8.0,2.0,5.0,2.0,-0.09746562056812243,-0.26718381050162776,2
40,2,1,40,111,survey-likert,111,1050554,3869.0,66.66666666666667,0.8,question_agency,question_agency_7_Lickert,-13.333333333333329,7.0,8.0,9.0,7.0,0.20809777071335203,0.20100706904938243,3
42,2,1,42,151,survey-likert,151,1234234,3346.0,50.0,0.8,question_agency,question_agency_7_Lickert,-30.0,6.0,10.0,14.0,13.0,0.022906064011283214,-0.0936296869222127,4
44,2,1,44,176,survey-likert,176,1352597,4889.0,33.333333333333336,0.8,question_agency,question_agency_7_Lickert,-46.666666666666664,6.0,6.0,10.0,7.0,-0.08406691407272154,0.06524243722042941,5
48,2,1,48,43,survey-likert,43,640466,6703.0,100.0,0.9,question_agency,question_agency_7_Lickert,10.0,7.0,5.0,6.0,5.0,-0.0992802716884393,0.0024318419193068296,1
46,2,1,46,62,survey-likert,62,738355,3389.0,66.66666666666667,0.9,question_agency,question_agency_7_Lickert,-23.33333333333333,3.0,6.0,5.0,4.0,0.49731497605380187,-0.15649736806084955,2
45,2,1,45,96,survey-likert,96,980913,4296.0,83.33333333333333,0.9,question_agency,question_agency_7_Lickert,-6.666666666666671,11.0,6.0,12.0,10.0,0.36436446295669617,0.0805666239978603,3
49,2,1,49,124,survey-likert,124,1111767,3489.0,83.33333333333333,0.9,question_agency,question_agency_7_Lickert,-6.666666666666671,10.0,8.0,7.0,6.0,-0.1892917334489178,0.20736641285868335,4
47,2,1,47,164,survey-likert,164,1299285,4374.0,50.0,0.9,question_agency,question_agency_7_Lickert,-40.0,8.0,7.0,11.0,14.0,-0.1955949147789321,-0.11044428356122403,5
51,2,1,51,22,survey-likert,22,495241,5773.0,83.33333333333333,1.0,question_agency,question_agency_7_Lickert,-16.66666666666667,6.0,7.0,7.0,6.0,0.33490400520424146,-0.2911454342690825,1
52,2,1,52,74,survey-likert,74,822823,8573.0,16.666666666666668,1.0,question_agency,question_agency_7_Lickert,-83.33333333333333,5.0,4.0,8.0,2.0,0.5706362690565603,-0.06739322237949874,2
54,2,1,54,105,survey-likert,105,1023904,3470.0,100.0,1.0,question_agency,question_agency_7_Lickert,0.0,9.0,8.0,14.0,11.0,0.18850533841136893,-0.37412930580416914,3
53,2,1,53,154,survey-likert,154,1246831,3164.0,83.33333333333333,1.0,question_agency,question_agency_7_Lickert,-16.66666666666667,8.0,8.0,6.0,8.0,0.1268345222313244,0.4538447124992095,4
50,2,1,50,179,survey-likert,179,1365081,3307.0,66.66666666666667,1.0,question_agency,question_agency_7_Lickert,-33.33333333333333,8.0,11.0,8.0,6.0,-0.45850728377105143,0.031051906392913702,5
2,3,1,2,46,survey-likert,46,325742,5036.0,0.0,0.0,question_agency,question_agency_7_Lickert,0.0,6.0,8.0,17.0,6.0,-0.1486501369921069,0.12954516765387808,1
4,3,1,4,56,survey-likert,56,367135,2999.0,0.0,0.0,question_agency,question_agency_7_Lickert,0.0,8.0,5.0,0.0,6.0,0.0,0.045786213274692525,2
1,3,1,1,99,survey-likert,99,558557,3823.0,0.0,0.0,question_agency,question_agency_7_Lickert,0.0,7.0,6.0,47.0,20.0,-0.059719749995354905,-0.21587899482611148,3
3,3,1,3,154,survey-likert,154,816800,3320.0,0.0,0.0,question_agency,question_agency_7_Lickert,0.0,6.0,5.0,34.0,1.0,-0.2794423368186759,0.0390201263981133,4
0,3,1,0,188,survey-likert,188,965356,4024.0,0.0,0.0,question_agency,question_agency_7_Lickert,0.0,7.0,6.0,34.0,18.0,-0.11006347929344563,0.02642710751888659,5
5,3,1,5,25,survey-likert,25,220406,6388.0,0.0,0.1,question_agency,question_agency_7_Lickert,-10.0,5.0,6.0,8.0,22.0,-0.08237086676338655,-0.2108040380801893,1
9,3,1,9,68,survey-likert,68,423088,3401.0,0.0,0.1,question_agency,question_agency_7_Lickert,-10.0,8.0,9.0,2.0,6.0,-0.3208789319132813,-0.1929409351616784,2
8,3,1,8,114,survey-likert,114,637127,7330.0,0.0,0.1,question_agency,question_agency_7_Lickert,-10.0,5.0,6.0,37.0,14.0,-0.4958312773186602,0.2582976974237939,3
7,3,1,7,148,survey-likert,148,791718,3328.0,0.0,0.1,question_agency,question_agency_7_Lickert,-10.0,7.0,6.0,34.0,14.0,-0.07897333618616707,-0.18875433178014528,4
6,3,1,6,170,survey-likert,170,888051,7121.0,0.0,0.1,question_agency,question_agency_7_Lickert,-10.0,9.0,8.0,27.0,28.0,-0.22546928718152495,0.1579393220953296,5
11,3,1,11,40,survey-likert,40,296943,9053.0,0.0,0.2,question_agency,question_agency_7_Lickert,-20.0,2.0,5.0,11.0,7.0,-0.36584139776995594,-0.34191125378470993,1
12,3,1,12,74,survey-likert,74,448594,3555.0,0.0,0.2,question_agency,question_agency_7_Lickert,-20.0,5.0,7.0,16.0,16.0,0.10618844765643906,0.2093266689895304,2
10,3,1,10,93,survey-likert,93,533037,3921.0,16.666666666666668,0.2,question_agency,question_agency_7_Lickert,-3.333333333333332,8.0,6.0,37.0,2.0,-0.13762199102624217,0.08797050533922272,3
13,3,1,13,142,survey-likert,142,765600,3038.0,16.666666666666668,0.2,question_agency,question_agency_7_Lickert,-3.333333333333332,8.0,9.0,60.0,0.0,-0.33303916409193485,0.0,4
14,3,1,14,161,survey-likert,161,843635,3890.0,16.666666666666668,0.2,question_agency,question_agency_7_Lickert,-3.333333333333332,3.0,9.0,30.0,20.0,-0.2956390005962042,0.23420010734521193,5
17,3,1,17,52,survey-likert,52,352376,4130.0,16.666666666666668,0.3,question_agency,question_agency_7_Lickert,-13.333333333333332,10.0,8.0,11.0,8.0,-0.06356420201342369,-0.13383568396768444,1
19,3,1,19,62,survey-likert,62,397384,7347.0,16.666666666666668,0.3,question_agency,question_agency_7_Lickert,-13.333333333333332,7.0,7.0,52.0,18.0,-0.3723629895257164,-0.20049038318998244,2
16,3,1,16,96,survey-likert,96,545716,3665.0,16.666666666666668,0.3,question_agency,question_agency_7_Lickert,-13.333333333333332,8.0,8.0,54.0,10.0,-0.1494042842251746,0.07943430372187373,3
18,3,1,18,133,survey-likert,133,727177,2826.0,16.666666666666668,0.3,question_agency,question_agency_7_Lickert,-13.333333333333332,9.0,10.0,50.0,0.0,-0.017101833919476384,0.0,4
15,3,1,15,158,survey-likert,158,830731,3535.0,16.666666666666668,0.3,question_agency,question_agency_7_Lickert,-13.333333333333332,7.0,6.0,59.0,10.0,0.10962803727401944,-0.19619327493554603,5
23,3,1,23,22,survey-likert,22,204996,12542.0,33.333333333333336,0.4,question_agency,question_agency_7_Lickert,-6.666666666666664,7.0,8.0,13.0,8.0,-0.34265596105958906,0.13735891814440293,1
24,3,1,24,83,survey-likert,83,491528,5163.0,16.666666666666668,0.4,question_agency,question_agency_7_Lickert,-23.333333333333332,6.0,4.0,34.0,1.0,-0.19841803492305915,-0.21967960470972148,2
21,3,1,21,108,survey-likert,108,598803,4368.0,16.666666666666668,0.4,question_agency,question_agency_7_Lickert,-23.333333333333332,3.0,5.0,16.0,2.0,-0.027920716555272434,0.18993447191796517,3
20,3,1,20,130,survey-likert,130,715342,5808.0,50.0,0.4,question_agency,question_agency_7_Lickert,10.0,9.0,10.0,11.0,4.0,0.6642690087827364,0.12327043817965921,4
22,3,1,22,167,survey-likert,167,871913,4582.0,50.0,0.4,question_agency,question_agency_7_Lickert,10.0,8.0,5.0,6.0,7.0,-0.1815050999819273,0.4165824052553794,5
27,3,1,27,43,survey-likert,43,311686,5735.0,16.666666666666668,0.5,question_agency,question_agency_7_Lickert,-33.33333333333333,7.0,8.0,13.0,6.0,-0.10569137028322834,0.19548818904298443,1
25,3,1,25,59,survey-likert,59,381017,4866.0,16.666666666666668,0.5,question_agency,question_agency_7_Lickert,-33.33333333333333,7.0,7.0,38.0,3.0,-0.18544748558870522,0.09724825446956566,2
28,3,1,28,90,survey-likert,90,520109,4689.0,16.666666666666668,0.5,question_agency,question_agency_7_Lickert,-33.33333333333333,5.0,6.0,17.0,2.0,-0.15990576909393392,-0.2697153273438476,3
29,3,1,29,139,survey-likert,139,753549,3777.0,66.66666666666667,0.5,question_agency,question_agency_7_Lickert,16.66666666666667,8.0,8.0,8.0,1.0,0.3682124745449257,0.16504566577343605,4
26,3,1,26,176,survey-likert,176,913066,3218.0,33.333333333333336,0.5,question_agency,question_agency_7_Lickert,-16.666666666666664,5.0,6.0,53.0,0.0,0.385861675514799,0.0,5
31,3,1,31,34,survey-likert,34,265593,5456.0,66.66666666666667,0.6,question_agency,question_agency_7_Lickert,6.666666666666671,8.0,9.0,10.0,9.0,-0.016969583758332744,0.41036740687239365,1
34,3,1,34,77,survey-likert,77,460907,3309.0,50.0,0.6,question_agency,question_agency_7_Lickert,-10.0,5.0,9.0,15.0,4.0,-0.08493255211908654,0.20493475040758463,2
33,3,1,33,105,survey-likert,105,585423,3833.0,50.0,0.6,question_agency,question_agency_7_Lickert,-10.0,7.0,7.0,6.0,0.0,-0.3855217412776698,0.0,3
32,3,1,32,127,survey-likert,127,700514,4827.0,66.66666666666667,0.6,question_agency,question_agency_7_Lickert,6.666666666666671,8.0,7.0,11.0,2.0,-0.2703028433296719,-0.20501016627575416,4
30,3,1,30,164,survey-likert,164,858312,5666.0,50.0,0.6,question_agency,question_agency_7_Lickert,-10.0,7.0,6.0,40.0,0.0,0.5750286190665906,0.0,5
35,3,1,35,37,survey-likert,37,278872,4270.0,66.66666666666667,0.7,question_agency,question_agency_7_Lickert,-3.3333333333333286,6.0,5.0,7.0,6.0,0.002006166624229986,-0.20817707058935872,1
36,3,1,36,65,survey-likert,65,410670,4277.0,66.66666666666667,0.7,question_agency,question_agency_7_Lickert,-3.3333333333333286,8.0,9.0,8.0,2.0,0.20299018857762377,-0.05677949153274509,2
38,3,1,38,117,survey-likert,117,660687,14539.0,33.333333333333336,0.7,question_agency,question_agency_7_Lickert,-36.666666666666664,7.0,10.0,31.0,0.0,0.05566682724107657,0.0,3
37,3,1,37,136,survey-likert,136,740759,4558.0,66.66666666666667,0.7,question_agency,question_agency_7_Lickert,-3.3333333333333286,6.0,7.0,3.0,4.0,-0.26089069488941813,0.4486410499125017,4
39,3,1,39,185,survey-likert,185,952325,3321.0,66.66666666666667,0.7,question_agency,question_agency_7_Lickert,-3.3333333333333286,7.0,6.0,4.0,5.0,0.2327797207842319,-0.5970976500016636,5
43,3,1,43,28,survey-likert,28,235174,5749.0,83.33333333333333,0.8,question_agency,question_agency_7_Lickert,3.3333333333333286,6.0,9.0,6.0,8.0,-0.01721844923078774,0.07755983923621708,1
42,3,1,42,80,survey-likert,80,477347,7432.0,66.66666666666667,0.8,question_agency,question_agency_7_Lickert,-13.333333333333329,5.0,6.0,6.0,0.0,-0.5141669408269652,0.0,2
44,3,1,44,102,survey-likert,102,572578,5005.0,83.33333333333333,0.8,question_agency,question_agency_7_Lickert,3.3333333333333286,7.0,6.0,9.0,4.0,0.24473869416332916,-0.3956706219588727,3
41,3,1,41,124,survey-likert,124,686673,3345.0,83.33333333333333,0.8,question_agency,question_agency_7_Lickert,3.3333333333333286,8.0,3.0,7.0,0.0,-0.42072411418275785,0.0,4
40,3,1,40,182,survey-likert,182,939983,5671.0,83.33333333333333,0.8,question_agency,question_agency_7_Lickert,3.3333333333333286,6.0,5.0,7.0,2.0,-0.3900992280749423,0.39030813247452995,5
49,3,1,49,31,survey-likert,31,251117,6926.0,83.33333333333333,0.9,question_agency,question_agency_7_Lickert,-6.666666666666671,7.0,6.0,8.0,8.0,-0.03200842118460801,0.42153340602978556,1
45,3,1,45,71,survey-likert,71,436032,3933.0,83.33333333333333,0.9,question_agency,question_agency_7_Lickert,-6.666666666666671,7.0,6.0,5.0,2.0,0.4523135034138013,0.35282835332463813,2
48,3,1,48,111,survey-likert,111,620794,12976.0,83.33333333333333,0.9,question_agency,question_agency_7_Lickert,-6.666666666666671,6.0,9.0,7.0,0.0,0.2194747682657152,0.0,3
46,3,1,46,145,survey-likert,145,779373,4760.0,83.33333333333333,0.9,question_agency,question_agency_7_Lickert,-6.666666666666671,6.0,7.0,6.0,3.0,-0.4790725126637087,0.39151094359728794,4
47,3,1,47,179,survey-likert,179,925299,3219.0,83.33333333333333,0.9,question_agency,question_agency_7_Lickert,-6.666666666666671,7.0,8.0,9.0,5.0,0.3146031838516074,0.03733774478593182,5
52,3,1,52,49,survey-likert,49,339235,4485.0,100.0,1.0,question_agency,question_agency_7_Lickert,0.0,9.0,6.0,8.0,5.0,-0.5303130263010377,-0.2208516303842214,1
54,3,1,54,86,survey-likert,86,504663,4115.0,100.0,1.0,question_agency,question_agency_7_Lickert,0.0,7.0,9.0,6.0,3.0,-0.6927008554239626,0.19687511538485988,2
50,3,1,50,120,survey-likert,120,672868,3171.0,100.0,1.0,question_agency,question_agency_7_Lickert,0.0,8.0,9.0,8.0,5.0,-0.15706263933714926,-0.03465180062106518,3
51,3,1,51,151,survey-likert,151,804473,3745.0,100.0,1.0,question_agency,question_agency_7_Lickert,0.0,5.0,6.0,10.0,5.0,0.02679646260168224,0.24806507721956433,4
53,3,1,53,173,survey-likert,173,900827,3766.0,100.0,1.0,question_agency,question_agency_7_Lickert,0.0,5.0,3.0,6.0,4.0,0.39315923675493475,0.0321481761809411,5
2,4,1,2,46,survey-likert,46,315680,29602.0,0.0,0.0,question_agency,question_agency_7_Lickert,0.0,8.0,8.0,19.0,19.0,-0.27720090682130893,-0.3095762989022982,1
4,4,1,4,65,survey-likert,65,412861,3917.0,0.0,0.0,question_agency,question_agency_7_Lickert,0.0,7.0,11.0,11.0,8.0,-0.18837620921927295,-0.0469157402029477,2
3,4,1,3,120,survey-likert,120,773789,3650.0,0.0,0.0,question_agency,question_agency_7_Lickert,0.0,8.0,6.0,0.0,3.0,0.0,0.15866355363177012,3
1,4,1,1,133,survey-likert,133,831420,7767.0,16.666666666666668,0.0,question_agency,question_agency_7_Lickert,16.666666666666668,7.0,6.0,1.0,0.0,0.30429984059043613,0.0,4
0,4,1,0,161,survey-likert,161,1330836,4671.0,0.0,0.0,question_agency,question_agency_7_Lickert,0.0,5.0,5.0,21.0,12.0,-0.1462765846005436,-0.0745067219933819,5
7,4,1,7,43,survey-likert,43,277061,3323.0,0.0,0.1,question_agency,question_agency_7_Lickert,-10.0,4.0,7.0,13.0,12.0,-0.5280708428243387,0.032652585675034825,1
9,4,1,9,74,survey-likert,74,449621,3008.0,16.666666666666668,0.1,question_agency,question_agency_7_Lickert,6.666666666666668,9.0,7.0,11.0,12.0,0.3912646811739711,0.0947270504183654,2
8,4,1,8,114,survey-likert,114,744898,3983.0,16.666666666666668,0.1,question_agency,question_agency_7_Lickert,6.666666666666668,7.0,9.0,5.0,2.0,0.41383198308426977,0.21848696728993383,3
6,4,1,6,124,survey-likert,124,789292,4111.0,0.0,0.1,question_agency,question_agency_7_Lickert,-10.0,6.0,5.0,2.0,1.0,0.0014296834350379696,0.032975011056561566,4
5,4,1,5,170,survey-likert,170,1371642,3426.0,16.666666666666668,0.1,question_agency,question_agency_7_Lickert,6.666666666666668,8.0,9.0,5.0,2.0,0.4574550680955149,0.009592231903077321,5
10,4,1,10,22,survey-likert,22,189490,3725.0,16.666666666666668,0.2,question_agency,question_agency_7_Lickert,-3.333333333333332,6.0,10.0,12.0,14.0,-0.5313424865046635,0.10733162168863619,1
13,4,1,13,71,survey-likert,71,437600,3326.0,0.0,0.2,question_agency,question_agency_7_Lickert,-20.0,5.0,7.0,18.0,9.0,0.04628575874897619,-0.10441263143835844,2
14,4,1,14,105,survey-likert,105,696498,3551.0,16.666666666666668,0.2,question_agency,question_agency_7_Lickert,-3.333333333333332,6.0,9.0,1.0,2.0,0.21812886740610762,0.053223162744742515,3
12,4,1,12,154,survey-likert,154,1107443,3952.0,16.666666666666668,0.2,question_agency,question_agency_7_Lickert,-3.333333333333332,10.0,7.0,8.0,2.0,0.2216980167334985,0.24254629302907746,4
11,4,1,11,173,survey-likert,173,1386868,6204.0,16.666666666666668,0.2,question_agency,question_agency_7_Lickert,-3.333333333333332,8.0,8.0,8.0,8.0,0.175638281255916,-0.2029767664888719,5
16,4,1,16,37,survey-likert,37,252338,2638.0,16.666666666666668,0.3,question_agency,question_agency_7_Lickert,-13.333333333333332,4.0,4.0,12.0,10.0,-0.287527400141371,-0.004420782493186096,1
17,4,1,17,86,survey-likert,86,498184,3765.0,16.666666666666668,0.3,question_agency,question_agency_7_Lickert,-13.333333333333332,9.0,8.0,5.0,3.0,-0.14811479043839973,-0.13472788520489357,2
18,4,1,18,90,survey-likert,90,635606,3518.0,16.666666666666668,0.3,question_agency,question_agency_7_Lickert,-13.333333333333332,6.0,6.0,7.0,3.0,-0.10183376241730302,-0.008515057354253548,3
15,4,1,15,142,survey-likert,142,1055820,4282.0,16.666666666666668,0.3,question_agency,question_agency_7_Lickert,-13.333333333333332,9.0,9.0,5.0,0.0,0.25448125953134265,0.0,4
19,4,1,19,176,survey-likert,176,1399773,3893.0,0.0,0.3,question_agency,question_agency_7_Lickert,-30.0,5.0,5.0,3.0,0.0,-0.08318255595249503,0.0,5
22,4,1,22,28,survey-likert,28,216162,5133.0,33.333333333333336,0.4,question_agency,question_agency_7_Lickert,-6.666666666666664,7.0,9.0,14.0,11.0,0.16303581597544667,-0.20989179888978043,1
21,4,1,21,77,survey-likert,77,459965,1325.0,0.0,0.4,question_agency,question_agency_7_Lickert,0.0,7.0,8.0,14.0,9.0,-0.4558090096632387,0.41795670380589306,2
23,4,1,23,117,survey-likert,117,761120,7202.0,16.666666666666668,0.4,question_agency,question_agency_7_Lickert,-23.333333333333332,7.0,3.0,8.0,4.0,0.36691495069450464,-0.057659277297849434,3
24,4,1,24,145,survey-likert,145,1068661,3826.0,16.666666666666668,0.4,question_agency,question_agency_7_Lickert,-23.333333333333332,9.0,5.0,4.0,0.0,0.26539862749170257,0.0,4
20,4,1,20,182,survey-likert,182,1494186,3212.0,16.666666666666668,0.4,question_agency,question_agency_7_Lickert,-23.333333333333332,5.0,6.0,5.0,4.0,0.4430382400372488,0.2386553105160071,5
28,4,1,28,34,survey-likert,34,240692,2650.0,50.0,0.5,question_agency,question_agency_7_Lickert,0.0,9.0,8.0,16.0,14.0,-0.04613105363068601,0.13390297420807423,1
29,4,1,29,56,survey-likert,56,375747,3332.0,33.333333333333336,0.5,question_agency,question_agency_7_Lickert,-16.666666666666664,10.0,8.0,17.0,10.0,0.2875530957425322,-0.06583635139477396,2
27,4,1,27,96,survey-likert,96,659952,3433.0,16.666666666666668,0.5,question_agency,question_agency_7_Lickert,-33.33333333333333,7.0,10.0,10.0,10.0,0.12015982927431604,-0.18501116695068795,3
25,4,1,25,130,survey-likert,130,814638,3448.0,16.666666666666668,0.5,question_agency,question_agency_7_Lickert,-33.33333333333333,5.0,7.0,3.0,0.0,-0.2633340851532088,0.0,4
26,4,1,26,179,survey-likert,179,1481952,73151.0,16.666666666666668,0.5,question_agency,question_agency_7_Lickert,-33.33333333333333,7.0,8.0,10.0,6.0,0.10833604713713799,-0.09027776053341514,5
34,4,1,34,31,survey-likert,31,229025,3853.0,33.333333333333336,0.6,question_agency,question_agency_7_Lickert,-26.666666666666664,5.0,6.0,17.0,15.0,-0.011218800357019013,-0.024339093152721963,1
31,4,1,31,83,survey-likert,83,485402,3367.0,16.666666666666668,0.6,question_agency,question_agency_7_Lickert,-43.33333333333333,6.0,9.0,12.0,12.0,-0.21475882639754293,-0.0944161422834122,2
33,4,1,33,102,survey-likert,102,683933,2568.0,33.333333333333336,0.6,question_agency,question_agency_7_Lickert,-26.666666666666664,8.0,8.0,15.0,12.0,0.21986450825701956,-0.1648850763166039,3
32,4,1,32,136,survey-likert,136,846143,5707.0,16.666666666666668,0.6,question_agency,question_agency_7_Lickert,-43.33333333333333,8.0,8.0,5.0,4.0,0.1303429474217798,-0.09155287366625657,4
30,4,1,30,158,survey-likert,158,1317145,70340.0,33.333333333333336,0.6,question_agency,question_agency_7_Lickert,-26.666666666666664,8.0,8.0,11.0,6.0,0.4126072930060315,0.06545217643468393,5
38,4,1,38,40,survey-likert,40,264730,3375.0,50.0,0.7,question_agency,question_agency_7_Lickert,-20.0,8.0,8.0,11.0,14.0,-0.273910174612734,0.1435842560153076,1
39,4,1,39,62,survey-likert,62,399930,3025.0,50.0,0.7,question_agency,question_agency_7_Lickert,-20.0,8.0,9.0,9.0,8.0,0.24730295809749972,-0.03226627750007773,2
35,4,1,35,99,survey-likert,99,672352,3385.0,16.666666666666668,0.7,question_agency,question_agency_7_Lickert,-53.33333333333333,5.0,7.0,7.0,18.0,-0.5113872444071758,-0.31197238804404004,3
36,4,1,36,148,survey-likert,148,1080783,3105.0,33.333333333333336,0.7,question_agency,question_agency_7_Lickert,-36.666666666666664,8.0,8.0,7.0,2.0,-0.09387289320008042,0.20995037228526198,4
37,4,1,37,164,survey-likert,164,1346270,6413.0,16.666666666666668,0.7,question_agency,question_agency_7_Lickert,-53.33333333333333,8.0,5.0,7.0,4.0,-0.24490481418748905,-0.3147658608810417,5
44,4,1,44,52,survey-likert,52,360885,21532.0,50.0,0.8,question_agency,question_agency_7_Lickert,-30.0,6.0,4.0,11.0,12.0,-0.19763195077121445,-0.43970908461296193,1
42,4,1,42,80,survey-likert,80,473026,4047.0,33.333333333333336,0.8,question_agency,question_agency_7_Lickert,-46.666666666666664,7.0,7.0,13.0,11.0,0.2879233694931173,-0.24989191750644366,2
41,4,1,41,93,survey-likert,93,647504,2883.0,50.0,0.8,question_agency,question_agency_7_Lickert,-30.0,6.0,7.0,17.0,14.0,-0.12446157860794865,0.08369384529019433,3
40,4,1,40,127,survey-likert,127,802172,3866.0,66.66666666666667,0.8,question_agency,question_agency_7_Lickert,-13.333333333333329,8.0,9.0,6.0,5.0,0.2216227730718557,-0.2068301627104698,4
43,4,1,43,167,survey-likert,167,1359211,3924.0,33.333333333333336,0.8,question_agency,question_agency_7_Lickert,-46.666666666666664,6.0,7.0,6.0,5.0,-0.3491941554133006,0.19368015086349832,5
45,4,1,45,25,survey-likert,25,202014,3516.0,50.0,0.9,question_agency,question_agency_7_Lickert,-40.0,7.0,7.0,14.0,12.0,0.1757158148482924,-0.45656698717152555,1
46,4,1,46,68,survey-likert,68,425259,3382.0,50.0,0.9,question_agency,question_agency_7_Lickert,-40.0,4.0,4.0,13.0,6.0,0.12263827099287611,-0.11048424929907553,2
48,4,1,48,108,survey-likert,108,709028,3515.0,66.66666666666667,0.9,question_agency,question_agency_7_Lickert,-23.33333333333333,6.0,4.0,15.0,12.0,-0.012859761145526918,-0.19835242126747862,3
47,4,1,47,139,survey-likert,139,1042521,186442.0,16.666666666666668,0.9,question_agency,question_agency_7_Lickert,-73.33333333333333,0.0,1.0,0.0,0.0,0.0,0.0,4
49,4,1,49,185,survey-likert,185,1512872,8789.0,16.666666666666668,0.9,question_agency,question_agency_7_Lickert,-73.33333333333333,1.0,0.0,0.0,0.0,0.0,0.0,5
50,4,1,50,49,survey-likert,49,330339,5648.0,83.33333333333333,1.0,question_agency,question_agency_7_Lickert,-16.66666666666667,8.0,7.0,10.0,11.0,0.19490347171597924,-0.10772667609281143,1
52,4,1,52,59,survey-likert,59,387888,3124.0,83.33333333333333,1.0,question_agency,question_agency_7_Lickert,-16.66666666666667,8.0,8.0,10.0,9.0,-0.2143892141838753,-0.16724572176416203,2
51,4,1,51,111,survey-likert,111,731889,13844.0,100.0,1.0,question_agency,question_agency_7_Lickert,0.0,8.0,8.0,5.0,4.0,0.12106725719133762,-0.1805170614722983,3
53,4,1,53,151,survey-likert,151,1094465,4665.0,100.0,1.0,question_agency,question_agency_7_Lickert,0.0,6.0,6.0,8.0,0.0,-0.47822090820050506,0.0,4
54,4,1,54,188,survey-likert,188,1525311,3425.0,100.0,1.0,question_agency,question_agency_7_Lickert,0.0,3.0,4.0,7.0,2.0,0.49976307234748757,-0.28523777157185704,5
0,5,1,0,22,survey-likert,22,95523,2936.0,0.0,0.0,question_agency,question_agency_7_Lickert,0.0,4.0,6.0,25.0,24.0,-0.054160227686205216,0.06194242491380259,1
4,5,1,4,80,survey-likert,80,332525,3309.0,0.0,0.0,question_agency,question_agency_7_Lickert,0.0,11.0,8.0,62.0,36.0,0.05381312561890859,-0.15362778919445674,2
3,5,1,3,120,survey-likert,120,507109,3788.0,0.0,0.0,question_agency,question_agency_7_Lickert,0.0,5.0,9.0,40.0,23.0,0.15131212074352085,0.04820556437573528,3
2,5,1,2,145,survey-likert,145,607814,1853.0,0.0,0.0,question_agency,question_agency_7_Lickert,0.0,8.0,10.0,27.0,24.0,-0.06530120458919608,-0.07993644950644486,4
1,5,1,1,158,survey-likert,158,656765,2220.0,0.0,0.0,question_agency,question_agency_7_Lickert,0.0,8.0,4.0,48.0,27.0,-0.07780474337159572,-0.02539197387261878,5
8,5,1,8,46,survey-likert,46,199005,5277.0,16.666666666666668,0.1,question_agency,question_agency_7_Lickert,6.666666666666668,6.0,9.0,43.0,10.0,-0.3294264433633376,-0.1459741860250829,1
9,5,1,9,59,survey-likert,59,249421,2927.0,0.0,0.1,question_agency,question_agency_7_Lickert,-10.0,8.0,4.0,47.0,22.0,-0.030091740775609613,0.09704691847699974,2
7,5,1,7,93,survey-likert,93,392613,6333.0,16.666666666666668,0.1,question_agency,question_agency_7_Lickert,6.666666666666668,6.0,5.0,80.0,20.0,-0.07340810949765579,-0.09546173666753865,3
6,5,1,6,136,survey-likert,136,568045,3450.0,16.666666666666668,0.1,question_agency,question_agency_7_Lickert,6.666666666666668,7.0,7.0,53.0,27.0,-0.06955649730764824,-0.11582701156433728,4
5,5,1,5,173,survey-likert,173,722500,3281.0,0.0,0.1,question_agency,question_agency_7_Lickert,-10.0,6.0,8.0,46.0,39.0,-0.04897211050573976,-0.18324813136162726,5
14,5,1,14,25,survey-likert,25,110733,6005.0,0.0,0.2,question_agency,question_agency_7_Lickert,-20.0,7.0,6.0,11.0,13.0,-0.0781417797394392,0.05417139124493031,1
11,5,1,11,74,survey-likert,74,307845,2809.0,16.666666666666668,0.2,question_agency,question_agency_7_Lickert,-3.333333333333332,8.0,7.0,52.0,25.0,-0.09544430594139723,-0.33336633663131343,2
12,5,1,12,105,survey-likert,105,440261,1928.0,16.666666666666668,0.2,question_agency,question_agency_7_Lickert,-3.333333333333332,7.0,7.0,61.0,41.0,-0.1377453682433285,-0.07378287170541716,3
10,5,1,10,151,survey-likert,151,631805,3546.0,16.666666666666668,0.2,question_agency,question_agency_7_Lickert,-3.333333333333332,7.0,5.0,25.0,15.0,-0.07812370518030871,-0.25858491023780966,4
13,5,1,13,188,survey-likert,188,779404,1730.0,33.333333333333336,0.2,question_agency,question_agency_7_Lickert,13.333333333333336,8.0,7.0,29.0,23.0,-0.048031006538835436,0.23767229066644804,5
16,5,1,16,37,survey-likert,37,159830,2692.0,33.333333333333336,0.3,question_agency,question_agency_7_Lickert,3.3333333333333357,6.0,8.0,14.0,38.0,-0.3235583252649976,-0.2638977362832543,1
19,5,1,19,62,survey-likert,62,260501,1952.0,16.666666666666668,0.3,question_agency,question_agency_7_Lickert,-13.333333333333332,6.0,8.0,26.0,47.0,-0.22172584404919451,-0.0619553492917233,2
17,5,1,17,114,survey-likert,114,480949,9282.0,33.333333333333336,0.3,question_agency,question_agency_7_Lickert,3.3333333333333357,5.0,8.0,67.0,28.0,-0.11076521308348965,-0.04513542865748919,3
15,5,1,15,139,survey-likert,139,584637,6884.0,16.666666666666668,0.3,question_agency,question_agency_7_Lickert,-13.333333333333332,8.0,9.0,42.0,40.0,-0.028637722857887574,0.0020147575898767462,4
18,5,1,18,185,survey-likert,185,768500,1807.0,33.333333333333336,0.3,question_agency,question_agency_7_Lickert,3.3333333333333357,7.0,9.0,24.0,26.0,0.03823483895803453,0.11297443643174887,5
20,5,1,20,34,survey-likert,34,147492,2340.0,50.0,0.4,question_agency,question_agency_7_Lickert,10.0,8.0,6.0,21.0,14.0,-0.26684021906351524,0.1779748384768195,1
21,5,1,21,86,survey-likert,86,358469,4267.0,16.666666666666668,0.4,question_agency,question_agency_7_Lickert,-23.333333333333332,6.0,10.0,57.0,16.0,-0.032636455187858446,-0.047104974621361394,2
24,5,1,24,111,survey-likert,111,462397,2104.0,16.666666666666668,0.4,question_agency,question_agency_7_Lickert,-23.333333333333332,6.0,4.0,32.0,17.0,-0.14270433875698083,0.0732858605578575,3
23,5,1,23,148,survey-likert,148,619205,2183.0,33.333333333333336,0.4,question_agency,question_agency_7_Lickert,-6.666666666666664,6.0,6.0,17.0,20.0,-0.20162226460972132,-0.22433040014986866,4
22,5,1,22,179,survey-likert,179,746109,2685.0,66.66666666666667,0.4,question_agency,question_agency_7_Lickert,26.66666666666667,11.0,10.0,37.0,24.0,-0.054534412575945886,-0.09720263688574589,5
27,5,1,27,52,survey-likert,52,221846,2595.0,16.666666666666668,0.5,question_agency,question_agency_7_Lickert,-33.33333333333333,9.0,6.0,9.0,22.0,-0.10586598127924512,-0.46923047288494657,1
29,5,1,29,65,survey-likert,65,271645,2138.0,33.333333333333336,0.5,question_agency,question_agency_7_Lickert,-16.666666666666664,7.0,8.0,30.0,26.0,-0.012519528340211458,-0.2694983859318915,2
28,5,1,28,96,survey-likert,96,405293,3493.0,33.333333333333336,0.5,question_agency,question_agency_7_Lickert,-16.666666666666664,7.0,7.0,26.0,23.0,0.10914499139341469,-0.13983056407129715,3
26,5,1,26,142,survey-likert,142,596381,2509.0,50.0,0.5,question_agency,question_agency_7_Lickert,0.0,6.0,10.0,16.0,24.0,-0.31768579057393914,-0.006939199323763193,4
25,5,1,25,167,survey-likert,167,697645,2606.0,33.333333333333336,0.5,question_agency,question_agency_7_Lickert,-16.666666666666664,5.0,5.0,20.0,17.0,-0.4285972259237809,-0.2242501681637196,5
33,5,1,33,28,survey-likert,28,124164,4341.0,50.0,0.6,question_agency,question_agency_7_Lickert,-10.0,7.0,7.0,21.0,20.0,-0.05604879648674245,-0.1443313955261624,1
34,5,1,34,71,survey-likert,71,295725,4122.0,66.66666666666667,0.6,question_agency,question_agency_7_Lickert,6.666666666666671,5.0,6.0,41.0,25.0,-0.14238353573452725,-0.2486068208310682,2
30,5,1,30,108,survey-likert,108,451222,1798.0,66.66666666666667,0.6,question_agency,question_agency_7_Lickert,6.666666666666671,5.0,6.0,33.0,20.0,-0.18788920863587724,-0.454921416831715,3
32,5,1,32,130,survey-likert,130,543804,2580.0,66.66666666666667,0.6,question_agency,question_agency_7_Lickert,6.666666666666671,9.0,8.0,18.0,12.0,-0.23049864286790647,-0.22861827700694676,4
31,5,1,31,164,survey-likert,164,685845,4431.0,83.33333333333333,0.6,question_agency,question_agency_7_Lickert,23.33333333333333,10.0,7.0,51.0,31.0,0.009109524209470834,0.27797275018688933,5
39,5,1,39,43,survey-likert,43,184189,3062.0,83.33333333333333,0.7,question_agency,question_agency_7_Lickert,13.333333333333329,6.0,4.0,16.0,34.0,-0.166663580912878,-0.40324764676367075,1
37,5,1,37,56,survey-likert,56,237349,4370.0,66.66666666666667,0.7,question_agency,question_agency_7_Lickert,-3.3333333333333286,6.0,8.0,22.0,31.0,0.04768945971944753,-0.0318447885648953,2
36,5,1,36,99,survey-likert,99,417148,2840.0,83.33333333333333,0.7,question_agency,question_agency_7_Lickert,13.333333333333329,7.0,9.0,20.0,33.0,-0.013572074362359321,-0.0096183996860176,3
38,5,1,38,154,survey-likert,154,643701,2287.0,83.33333333333333,0.7,question_agency,question_agency_7_Lickert,13.333333333333329,12.0,10.0,38.0,24.0,0.07898348055762264,0.0928641304485752,4
35,5,1,35,176,survey-likert,176,734301,2657.0,83.33333333333333,0.7,question_agency,question_agency_7_Lickert,13.333333333333329,7.0,5.0,26.0,21.0,-0.13749817610789475,-0.015794502405186324,5
43,5,1,43,40,survey-likert,40,172045,2502.0,83.33333333333333,0.8,question_agency,question_agency_7_Lickert,3.3333333333333286,5.0,6.0,25.0,19.0,-0.10708037457952842,-0.27931048830099725,1
41,5,1,41,83,survey-likert,83,345180,3069.0,83.33333333333333,0.8,question_agency,question_agency_7_Lickert,3.3333333333333286,10.0,10.0,37.0,33.0,0.005273389650467844,-0.09714845565364405,2
44,5,1,44,90,survey-likert,90,377269,8439.0,66.66666666666667,0.8,question_agency,question_agency_7_Lickert,-13.333333333333329,5.0,4.0,56.0,38.0,-0.07439036902403703,0.11158662818394202,3
42,5,1,42,127,survey-likert,127,532116,2001.0,83.33333333333333,0.8,question_agency,question_agency_7_Lickert,3.3333333333333286,8.0,8.0,12.0,6.0,-0.04924920141576325,-0.39311968742682063,4
40,5,1,40,161,survey-likert,161,672349,5606.0,66.66666666666667,0.8,question_agency,question_agency_7_Lickert,-13.333333333333329,9.0,9.0,29.0,61.0,-0.09677844689213902,0.08648129767590895,5
45,5,1,45,31,survey-likert,31,136141,2967.0,83.33333333333333,0.9,question_agency,question_agency_7_Lickert,-6.666666666666671,7.0,9.0,20.0,22.0,-0.268132530893463,-0.014979570276722589,1
48,5,1,48,68,survey-likert,68,282621,1965.0,83.33333333333333,0.9,question_agency,question_agency_7_Lickert,-6.666666666666671,8.0,8.0,26.0,22.0,0.14641592322540475,-0.1958863007504811,2
46,5,1,46,117,survey-likert,117,494196,3405.0,83.33333333333333,0.9,question_agency,question_agency_7_Lickert,-6.666666666666671,6.0,10.0,37.0,30.0,-0.08713132787805415,0.10086230368612295,3
49,5,1,49,124,survey-likert,124,520909,3880.0,83.33333333333333,0.9,question_agency,question_agency_7_Lickert,-6.666666666666671,6.0,6.0,30.0,28.0,-0.057429071256259116,-0.06587767890122474,4
47,5,1,47,182,survey-likert,182,757573,2458.0,83.33333333333333,0.9,question_agency,question_agency_7_Lickert,-6.666666666666671,9.0,5.0,14.0,36.0,0.3061313293586013,-0.01016146616706509,5
50,5,1,50,49,survey-likert,49,210221,2086.0,100.0,1.0,question_agency,question_agency_7_Lickert,0.0,9.0,11.0,37.0,24.0,0.013251352693983,0.08073322404663628,1
53,5,1,53,77,survey-likert,77,320125,3025.0,100.0,1.0,question_agency,question_agency_7_Lickert,0.0,7.0,7.0,31.0,28.0,0.2643575235297016,0.15275573919373855,2
54,5,1,54,102,survey-likert,102,429077,2914.0,100.0,1.0,question_agency,question_agency_7_Lickert,0.0,10.0,6.0,42.0,47.0,0.009520467348962532,0.009744781282069587,3
51,5,1,51,133,survey-likert,133,555277,1914.0,100.0,1.0,question_agency,question_agency_7_Lickert,0.0,7.0,6.0,32.0,26.0,-0.049541832247958974,-0.06709557811454071,4
52,5,1,52,170,survey-likert,170,709973,3313.0,100.0,1.0,question_agency,question_agency_7_Lickert,0.0,5.0,7.0,29.0,15.0,0.05064662471080765,0.15995781159153158,5
2,6,1,2,34,survey-likert,34,406015,4206.0,0.0,0.0,question_agency,question_agency_7_Lickert,0.0,8.0,7.0,18.0,19.0,0.18000790369865677,-0.026428346840905014,1
3,6,1,3,65,survey-likert,65,541608,2125.0,0.0,0.0,question_agency,question_agency_7_Lickert,0.0,9.0,6.0,16.0,10.0,-0.11769092449415071,0.138720109357839,2
0,6,1,0,93,survey-likert,93,654310,2171.0,0.0,0.0,question_agency,question_agency_7_Lickert,0.0,7.0,7.0,24.0,4.0,0.08933275652801015,0.03232374227960886,3
4,6,1,4,139,survey-likert,139,889720,8105.0,16.666666666666668,0.0,question_agency,question_agency_7_Lickert,16.666666666666668,5.0,5.0,4.0,7.0,-0.08045393327559903,-0.5071513432965222,4
1,6,1,1,185,survey-likert,185,1081557,2274.0,0.0,0.0,question_agency,question_agency_7_Lickert,0.0,4.0,7.0,18.0,13.0,-0.1447089045201636,-0.07141105143472191,5
5,6,1,5,49,survey-likert,49,465238,1770.0,0.0,0.1,question_agency,question_agency_7_Lickert,-10.0,6.0,6.0,16.0,22.0,-0.1966413038847563,0.07283414411199018,1
8,6,1,8,59,survey-likert,59,518751,3601.0,33.333333333333336,0.1,question_agency,question_agency_7_Lickert,23.333333333333336,5.0,8.0,10.0,13.0,0.4624150934115336,-0.19981187033902348,2
6,6,1,6,96,survey-likert,96,665646,2323.0,16.666666666666668,0.1,question_agency,question_agency_7_Lickert,6.666666666666668,9.0,6.0,8.0,8.0,-0.2842730028735271,0.16682551295293852,3
9,6,1,9,148,survey-likert,148,934389,1873.0,0.0,0.1,question_agency,question_agency_7_Lickert,-10.0,7.0,6.0,14.0,16.0,0.03232457541982664,0.13897673711456757,4
7,6,1,7,176,survey-likert,176,1047989,2117.0,0.0,0.1,question_agency,question_agency_7_Lickert,-10.0,7.0,8.0,19.0,9.0,0.12312434727970721,0.060318260673682025,5
12,6,1,12,46,survey-likert,46,454454,3424.0,0.0,0.2,question_agency,question_agency_7_Lickert,-20.0,10.0,8.0,17.0,8.0,0.04424654535338388,0.0827706649383963,1
10,6,1,10,62,survey-likert,62,530470,2711.0,16.666666666666668,0.2,question_agency,question_agency_7_Lickert,-3.333333333333332,6.0,9.0,17.0,6.0,0.2776918338366024,0.40238907308125493,2
11,6,1,11,105,survey-likert,105,703590,4742.0,33.333333333333336,0.2,question_agency,question_agency_7_Lickert,13.333333333333336,6.0,7.0,8.0,12.0,0.3048464633131729,0.09111897658163264,3
14,6,1,14,145,survey-likert,145,923510,3726.0,33.333333333333336,0.2,question_agency,question_agency_7_Lickert,13.333333333333336,3.0,4.0,15.0,9.0,-0.16808671242036194,-0.11146695837047561,4
13,6,1,13,179,survey-likert,179,1059437,2433.0,0.0,0.2,question_agency,question_agency_7_Lickert,-20.0,6.0,7.0,5.0,21.0,-0.16360417172806724,0.11565170674204898,5
15,6,1,15,43,survey-likert,43,442014,2792.0,33.333333333333336,0.3,question_agency,question_agency_7_Lickert,3.3333333333333357,6.0,6.0,15.0,10.0,-0.22425753516896657,0.046641622737513905,1
19,6,1,19,56,survey-likert,56,506134,3114.0,16.666666666666668,0.3,question_agency,question_agency_7_Lickert,-13.333333333333332,8.0,8.0,7.0,16.0,0.03337753323048604,0.03747327361926894,2
18,6,1,18,108,survey-likert,108,719323,6722.0,33.333333333333336,0.3,question_agency,question_agency_7_Lickert,3.3333333333333357,6.0,6.0,6.0,11.0,-0.3437819384317528,-0.11787954859674471,3
17,6,1,17,154,survey-likert,154,959333,4074.0,33.333333333333336,0.3,question_agency,question_agency_7_Lickert,3.3333333333333357,9.0,9.0,11.0,8.0,-0.13005674761793248,0.20363443309633264,4
16,6,1,16,182,survey-likert,182,1070269,1816.0,16.666666666666668,0.3,question_agency,question_agency_7_Lickert,-13.333333333333332,9.0,6.0,14.0,10.0,-0.25871307519904985,-0.11690115524940822,5
23,6,1,23,28,survey-likert,28,378543,2833.0,16.666666666666668,0.4,question_agency,question_agency_7_Lickert,-23.333333333333332,7.0,4.0,11.0,11.0,0.14374368627076106,0.054270570590674014,1
24,6,1,24,80,survey-likert,80,599838,1919.0,16.666666666666668,0.4,question_agency,question_agency_7_Lickert,-23.333333333333332,10.0,8.0,10.0,11.0,0.057747454218452204,0.2655472733454227,2
20,6,1,20,117,survey-likert,117,768957,2314.0,33.333333333333336,0.4,question_agency,question_agency_7_Lickert,-6.666666666666664,7.0,6.0,13.0,12.0,0.04459769315484192,0.2926116584328836,3
21,6,1,21,130,survey-likert,130,828716,2470.0,16.666666666666668,0.4,question_agency,question_agency_7_Lickert,-23.333333333333332,10.0,6.0,7.0,14.0,-0.02075200166711165,-0.14469175042890078,4
22,6,1,22,173,survey-likert,173,1036854,1762.0,16.666666666666668,0.4,question_agency,question_agency_7_Lickert,-23.333333333333332,7.0,6.0,11.0,12.0,-0.06576144941770856,-0.0835842600407834,5
28,6,1,28,25,survey-likert,25,366704,2891.0,16.666666666666668,0.5,question_agency,question_agency_7_Lickert,-33.33333333333333,9.0,10.0,12.0,7.0,-0.614156421299683,-0.07124569692128108,1
25,6,1,25,86,survey-likert,86,623869,2154.0,16.666666666666668,0.5,question_agency,question_agency_7_Lickert,-33.33333333333333,4.0,6.0,9.0,6.0,0.3343245369604689,-0.3037185708390799,2
26,6,1,26,90,survey-likert,90,643126,5724.0,33.333333333333336,0.5,question_agency,question_agency_7_Lickert,-16.666666666666664,7.0,5.0,17.0,5.0,-0.6299307523052673,0.36628282967061365,3
27,6,1,27,133,survey-likert,133,840526,2792.0,16.666666666666668,0.5,question_agency,question_agency_7_Lickert,-33.33333333333333,9.0,6.0,14.0,10.0,0.14257745432709454,-0.3529731704713752,4
29,6,1,29,158,survey-likert,158,974054,4063.0,16.666666666666668,0.5,question_agency,question_agency_7_Lickert,-33.33333333333333,8.0,5.0,12.0,11.0,-0.02708641332767425,-0.2469081345762229,5
32,6,1,32,52,survey-likert,52,489270,15019.0,50.0,0.6,question_agency,question_agency_7_Lickert,-10.0,8.0,5.0,14.0,11.0,0.02248335443767847,-0.29784339367965773,1
33,6,1,33,83,survey-likert,83,612702,3849.0,16.666666666666668,0.6,question_agency,question_agency_7_Lickert,-43.33333333333333,7.0,7.0,7.0,6.0,-0.020517514859743246,-0.4054190047867029,2
34,6,1,34,114,survey-likert,114,757630,2225.0,50.0,0.6,question_agency,question_agency_7_Lickert,-10.0,9.0,7.0,7.0,10.0,0.7360127813497,-0.11701807543124988,3
30,6,1,30,151,survey-likert,151,946246,2844.0,50.0,0.6,question_agency,question_agency_7_Lickert,-10.0,6.0,6.0,10.0,8.0,0.33260114079469977,0.10439271364620892,4
31,6,1,31,188,survey-likert,188,1094670,4100.0,33.333333333333336,0.6,question_agency,question_agency_7_Lickert,-26.666666666666664,5.0,7.0,9.0,10.0,0.2652294658791282,0.0962772607778191,5
35,6,1,35,22,survey-likert,22,354799,6886.0,66.66666666666667,0.7,question_agency,question_agency_7_Lickert,-3.3333333333333286,6.0,8.0,6.0,9.0,0.3422851697063144,0.3026061733317103,1
38,6,1,38,77,survey-likert,77,588903,2552.0,50.0,0.7,question_agency,question_agency_7_Lickert,-20.0,6.0,8.0,7.0,8.0,0.4422099042396216,0.01010458487914902,2
37,6,1,37,111,survey-likert,111,746382,18040.0,50.0,0.7,question_agency,question_agency_7_Lickert,-20.0,10.0,4.0,7.0,4.0,0.044672568439102625,-0.349390133232175,3
36,6,1,36,127,survey-likert,127,817228,8857.0,66.66666666666667,0.7,question_agency,question_agency_7_Lickert,-3.3333333333333286,5.0,5.0,5.0,8.0,0.09541395227817287,-0.44944893054384594,4
39,6,1,39,164,survey-likert,164,996886,2476.0,66.66666666666667,0.7,question_agency,question_agency_7_Lickert,-3.3333333333333286,6.0,7.0,5.0,9.0,0.5613361892822817,-0.45214245460813046,5
40,6,1,40,40,survey-likert,40,430206,3300.0,66.66666666666667,0.8,question_agency,question_agency_7_Lickert,-13.333333333333329,6.0,7.0,8.0,9.0,0.6476858584876742,-0.4013116503389423,1
43,6,1,43,74,survey-likert,74,577341,2099.0,66.66666666666667,0.8,question_agency,question_agency_7_Lickert,-13.333333333333329,4.0,4.0,5.0,5.0,-0.21734462083945386,-0.47465497320172884,2
42,6,1,42,99,survey-likert,99,676911,2247.0,66.66666666666667,0.8,question_agency,question_agency_7_Lickert,-13.333333333333329,4.0,7.0,7.0,7.0,0.4683087050464604,-0.3491230447174043,3
41,6,1,41,136,survey-likert,136,872586,23040.0,33.333333333333336,0.8,question_agency,question_agency_7_Lickert,-46.666666666666664,9.0,9.0,5.0,9.0,0.3348164465748308,0.1166109081579054,4
44,6,1,44,161,survey-likert,161,985398,2333.0,83.33333333333333,0.8,question_agency,question_agency_7_Lickert,3.3333333333333286,6.0,7.0,6.0,7.0,-0.2823837734643521,0.023864110508821472,5
45,6,1,45,37,survey-likert,37,417886,2860.0,66.66666666666667,0.9,question_agency,question_agency_7_Lickert,-23.33333333333333,6.0,8.0,11.0,10.0,-0.5576094608514796,0.13951703490466316,1
49,6,1,49,68,survey-likert,68,553974,3351.0,83.33333333333333,0.9,question_agency,question_agency_7_Lickert,-6.666666666666671,6.0,8.0,7.0,7.0,-0.1542681834784586,0.17016575068012274,2
47,6,1,47,120,survey-likert,120,781147,3162.0,66.66666666666667,0.9,question_agency,question_agency_7_Lickert,-23.33333333333333,8.0,7.0,7.0,7.0,-0.3398915529183896,0.45951094236585505,3
48,6,1,48,124,survey-likert,124,799354,5433.0,83.33333333333333,0.9,question_agency,question_agency_7_Lickert,-6.666666666666671,8.0,8.0,9.0,4.0,0.27998981647426857,-0.23053386082332009,4
46,6,1,46,167,survey-likert,167,1013173,7266.0,66.66666666666667,0.9,question_agency,question_agency_7_Lickert,-23.33333333333333,8.0,9.0,6.0,11.0,0.21525985043509596,0.5502532680313691,5
53,6,1,53,31,survey-likert,31,392790,5236.0,83.33333333333333,1.0,question_agency,question_agency_7_Lickert,-16.66666666666667,5.0,7.0,5.0,5.0,-0.5240789529121482,0.03602407797060949,1
54,6,1,54,71,survey-likert,71,566230,3248.0,100.0,1.0,question_agency,question_agency_7_Lickert,0.0,8.0,8.0,8.0,7.0,0.39627533939796444,-0.5806642419300073,2
52,6,1,52,102,survey-likert,102,689829,3899.0,83.33333333333333,1.0,question_agency,question_agency_7_Lickert,-16.66666666666667,6.0,7.0,5.0,8.0,-0.017815721016600037,0.1959227695861807,3
51,6,1,51,142,survey-likert,142,910758,12029.0,66.66666666666667,1.0,question_agency,question_agency_7_Lickert,-33.33333333333333,7.0,5.0,6.0,13.0,0.14014049584499477,0.6432448973830149,4
50,6,1,50,170,survey-likert,170,1026073,3879.0,100.0,1.0,question_agency,question_agency_7_Lickert,0.0,7.0,4.0,8.0,8.0,-0.2790437503309115,-0.44598908482639893,5
3,7,1,3,46,survey-likert,46,253201,2242.0,0.0,0.0,question_agency,question_agency_7_Lickert,0.0,3.0,7.0,7.0,5.0,0.20575107635381576,-0.06295011801355313,1
1,7,1,1,83,survey-likert,83,403340,1982.0,0.0,0.0,question_agency,question_agency_7_Lickert,0.0,5.0,6.0,12.0,2.0,-0.3312266331588891,0.3063761469882594,2
4,7,1,4,93,survey-likert,93,438656,2567.0,0.0,0.0,question_agency,question_agency_7_Lickert,0.0,6.0,9.0,8.0,0.0,0.2992054460961471,0.0,3
2,7,1,2,145,survey-likert,145,655035,4145.0,0.0,0.0,question_agency,question_agency_7_Lickert,0.0,9.0,10.0,3.0,2.0,0.1601237808894446,-0.5246717224370986,4
0,7,1,0,188,survey-likert,188,851706,4152.0,66.66666666666667,0.0,question_agency,question_agency_7_Lickert,66.66666666666667,6.0,7.0,2.0,0.0,0.059234622898699074,0.0,5
9,7,1,9,34,survey-likert,34,204608,2806.0,0.0,0.1,question_agency,question_agency_7_Lickert,-10.0,7.0,4.0,4.0,9.0,0.1311958713996715,-0.18059249332091026,1
7,7,1,7,74,survey-likert,74,369656,2231.0,16.666666666666668,0.1,question_agency,question_agency_7_Lickert,6.666666666666668,12.0,9.0,5.0,5.0,0.4604068519851816,0.13478966364255077,2
6,7,1,6,102,survey-likert,102,475976,3930.0,33.333333333333336,0.1,question_agency,question_agency_7_Lickert,23.333333333333336,6.0,4.0,8.0,2.0,0.03141543191990068,-0.1314593927609163,3
5,7,1,5,139,survey-likert,139,629051,4046.0,50.0,0.1,question_agency,question_agency_7_Lickert,40.0,8.0,5.0,9.0,7.0,0.5562466265640444,0.4632605873536591,4
8,7,1,8,176,survey-likert,176,798042,5674.0,33.333333333333336,0.1,question_agency,question_agency_7_Lickert,23.333333333333336,4.0,6.0,2.0,0.0,-0.5950916390682369,0.0,5
12,7,1,12,52,survey-likert,52,275633,1961.0,16.666666666666668,0.2,question_agency,question_agency_7_Lickert,-3.333333333333332,6.0,9.0,7.0,3.0,0.3658624272635482,0.2941148272340156,1
13,7,1,13,56,survey-likert,56,291913,4580.0,16.666666666666668,0.2,question_agency,question_agency_7_Lickert,-3.333333333333332,7.0,10.0,7.0,3.0,-0.1069344636563875,0.530344228458903,2
10,7,1,10,96,survey-likert,96,450696,3033.0,16.666666666666668,0.2,question_agency,question_agency_7_Lickert,-3.333333333333332,6.0,8.0,5.0,1.0,0.3651059061980249,0.24837783989448467,3
11,7,1,11,130,survey-likert,130,592031,2842.0,66.66666666666667,0.2,question_agency,question_agency_7_Lickert,46.66666666666667,7.0,7.0,5.0,2.0,0.33873587034222225,0.1709835456033532,4
14,7,1,14,167,survey-likert,167,756898,6887.0,83.33333333333333,0.2,question_agency,question_agency_7_Lickert,63.33333333333333,5.0,5.0,5.0,1.0,0.3700121855323157,0.04640970330588433,5
17,7,1,17,40,survey-likert,40,228665,3180.0,16.666666666666668,0.3,question_agency,question_agency_7_Lickert,-13.333333333333332,9.0,6.0,4.0,4.0,0.026326573676839094,0.2049413463463196,1
15,7,1,15,68,survey-likert,68,344796,2708.0,50.0,0.3,question_agency,question_agency_7_Lickert,20.0,9.0,9.0,10.0,7.0,0.18143180859997654,0.2892239665308062,2
16,7,1,16,114,survey-likert,114,525647,2484.0,0.0,0.3,question_agency,question_agency_7_Lickert,-30.0,7.0,5.0,4.0,0.0,-0.07996541605746263,0.0,3
18,7,1,18,142,survey-likert,142,641871,3812.0,16.666666666666668,0.3,question_agency,question_agency_7_Lickert,-13.333333333333332,8.0,7.0,3.0,1.0,0.2412694541052011,-0.24918417252702862,4
19,7,1,19,161,survey-likert,161,724431,4066.0,33.333333333333336,0.3,question_agency,question_agency_7_Lickert,3.3333333333333357,3.0,6.0,2.0,0.0,0.45100940209546964,0.0,5
24,7,1,24,37,survey-likert,37,216472,2847.0,0.0,0.4,question_agency,question_agency_7_Lickert,-40.0,6.0,6.0,5.0,4.0,-0.26972563592583704,-0.12815011584014457,1
23,7,1,23,62,survey-likert,62,319993,2788.0,33.333333333333336,0.4,question_agency,question_agency_7_Lickert,-6.666666666666664,8.0,9.0,13.0,3.0,-0.0236435927568548,-0.06352668487322688,2
22,7,1,22,105,survey-likert,105,487204,2213.0,66.66666666666667,0.4,question_agency,question_agency_7_Lickert,26.66666666666667,8.0,9.0,6.0,2.0,0.05875533602615469,-0.09246963715453735,3
21,7,1,21,154,survey-likert,154,696579,4000.0,33.333333333333336,0.4,question_agency,question_agency_7_Lickert,-6.666666666666664,9.0,8.0,4.0,2.0,0.37434954822920585,0.23268330376212956,4
20,7,1,20,170,survey-likert,170,769594,3675.0,0.0,0.4,question_agency,question_agency_7_Lickert,-40.0,8.0,5.0,3.0,0.0,0.43603487399549085,0.0,5
27,7,1,27,25,survey-likert,25,150380,2389.0,16.666666666666668,0.5,question_agency,question_agency_7_Lickert,-33.33333333333333,7.0,6.0,14.0,5.0,-0.16102638929562987,0.2086796479705188,1
25,7,1,25,80,survey-likert,80,392348,2460.0,33.333333333333336,0.5,question_agency,question_agency_7_Lickert,-16.666666666666664,11.0,8.0,6.0,4.0,0.39419354540215457,0.06780650154034629,2
28,7,1,28,111,survey-likert,111,514152,3226.0,33.333333333333336,0.5,question_agency,question_agency_7_Lickert,-16.666666666666664,6.0,4.0,7.0,2.0,-0.21140884052957143,0.07773149146638697,3
29,7,1,29,151,survey-likert,151,683559,2574.0,16.666666666666668,0.5,question_agency,question_agency_7_Lickert,-33.33333333333333,4.0,7.0,3.0,2.0,-0.12873798751063462,0.3123922137910698,4
26,7,1,26,158,survey-likert,158,711343,2920.0,16.666666666666668,0.5,question_agency,question_agency_7_Lickert,-33.33333333333333,7.0,7.0,6.0,6.0,0.4216324815704555,-0.48803880156455376,5
34,7,1,34,31,survey-likert,31,192781,3023.0,0.0,0.6,question_agency,question_agency_7_Lickert,-60.0,6.0,6.0,8.0,6.0,0.3337676582709308,-0.2555854080863209,1
31,7,1,31,71,survey-likert,71,358412,4599.0,50.0,0.6,question_agency,question_agency_7_Lickert,-10.0,8.0,10.0,6.0,4.0,0.39600747049669444,0.1765328139732915,2
32,7,1,32,117,survey-likert,117,537779,3116.0,66.66666666666667,0.6,question_agency,question_agency_7_Lickert,6.666666666666671,4.0,9.0,4.0,2.0,0.6157437209880872,0.3443808123647718,3
33,7,1,33,124,survey-likert,124,566835,3895.0,50.0,0.6,question_agency,question_agency_7_Lickert,-10.0,4.0,7.0,3.0,2.0,-0.23707897300259845,0.02765503771325888,4
30,7,1,30,182,survey-likert,182,824786,4932.0,50.0,0.6,question_agency,question_agency_7_Lickert,-10.0,9.0,8.0,2.0,0.0,0.05841898681588339,0.0,5
35,7,1,35,43,survey-likert,43,241949,4274.0,33.333333333333336,0.7,question_agency,question_agency_7_Lickert,-36.666666666666664,7.0,8.0,10.0,6.0,-0.5211899982808188,0.31182176001762696,1
38,7,1,38,77,survey-likert,77,380871,2207.0,50.0,0.7,question_agency,question_agency_7_Lickert,-20.0,5.0,10.0,8.0,8.0,-0.12061244683633829,0.48653759425617643,2
36,7,1,36,120,survey-likert,120,551467,4672.0,16.666666666666668,0.7,question_agency,question_agency_7_Lickert,-53.33333333333333,9.0,4.0,2.0,0.0,-0.20448462317424787,0.0,3
39,7,1,39,148,survey-likert,148,671967,7920.0,66.66666666666667,0.7,question_agency,question_agency_7_Lickert,-3.3333333333333286,5.0,8.0,6.0,4.0,0.4837084221933447,-0.20833692348591099,4
37,7,1,37,173,survey-likert,173,783362,4760.0,50.0,0.7,question_agency,question_agency_7_Lickert,-20.0,8.0,6.0,2.0,0.0,0.38749830309413874,0.0,5
41,7,1,41,28,survey-likert,28,180737,21333.0,33.333333333333336,0.8,question_agency,question_agency_7_Lickert,-46.666666666666664,7.0,6.0,12.0,6.0,0.1912182420467096,0.1348998241016933,1
42,7,1,42,86,survey-likert,86,414992,2644.0,83.33333333333333,0.8,question_agency,question_agency_7_Lickert,3.3333333333333286,7.0,8.0,10.0,4.0,0.6888420171172043,-0.12103360746559212,2
44,7,1,44,99,survey-likert,99,463020,3309.0,66.66666666666667,0.8,question_agency,question_agency_7_Lickert,-13.333333333333329,5.0,9.0,6.0,3.0,0.1548481794209309,-0.552677813846757,3
43,7,1,43,127,survey-likert,127,580179,4335.0,66.66666666666667,0.8,question_agency,question_agency_7_Lickert,-13.333333333333329,7.0,8.0,5.0,3.0,0.01807868999542768,-0.11845987751114481,4
40,7,1,40,179,survey-likert,179,810834,3776.0,66.66666666666667,0.8,question_agency,question_agency_7_Lickert,-13.333333333333329,5.0,5.0,2.0,0.0,0.5215070392633331,0.0,5
49,7,1,49,22,survey-likert,22,138977,4725.0,66.66666666666667,0.9,question_agency,question_agency_7_Lickert,-23.33333333333333,6.0,8.0,11.0,13.0,0.0936831557897103,-0.07244355400474795,1
47,7,1,47,65,survey-likert,65,333081,4076.0,66.66666666666667,0.9,question_agency,question_agency_7_Lickert,-23.33333333333333,5.0,7.0,9.0,8.0,-0.003129495003072757,0.12602284717144566,2
48,7,1,48,108,survey-likert,108,501916,5700.0,83.33333333333333,0.9,question_agency,question_agency_7_Lickert,-6.666666666666671,6.0,7.0,7.0,4.0,0.0712886272664928,-0.047440859361192696,3
45,7,1,45,136,survey-likert,136,615991,2759.0,83.33333333333333,0.9,question_agency,question_agency_7_Lickert,-6.666666666666671,6.0,5.0,7.0,5.0,-0.05568777495924942,0.013211476486602685,4
46,7,1,46,164,survey-likert,164,740979,7531.0,83.33333333333333,0.9,question_agency,question_agency_7_Lickert,-6.666666666666671,6.0,4.0,4.0,1.0,0.23982960593256372,0.3820680388052361,5
54,7,1,54,49,survey-likert,49,264664,2448.0,100.0,1.0,question_agency,question_agency_7_Lickert,0.0,6.0,7.0,14.0,10.0,-0.03794000071855705,-0.18611181772544613,1
50,7,1,50,59,survey-likert,59,308181,7255.0,83.33333333333333,1.0,question_agency,question_agency_7_Lickert,-16.66666666666667,5.0,5.0,11.0,8.0,-0.06741604655914278,-0.5604838601660259,2
51,7,1,51,90,survey-likert,90,427077,1912.0,100.0,1.0,question_agency,question_agency_7_Lickert,0.0,5.0,8.0,8.0,5.0,-0.18813023903329182,0.004905768766191689,3
52,7,1,52,133,survey-likert,133,604219,3173.0,100.0,1.0,question_agency,question_agency_7_Lickert,0.0,7.0,6.0,6.0,4.0,-0.14964973527565892,-0.011118608557502067,4
53,7,1,53,185,survey-likert,185,838522,4722.0,66.66666666666667,1.0,question_agency,question_agency_7_Lickert,-33.33333333333333,6.0,5.0,5.0,2.0,-0.013434304849211348,-0.506011905045769,5
2,8,1,2,43,survey-likert,43,173380,2114.0,0.0,0.0,question_agency,question_agency_7_Lickert,0.0,7.0,7.0,17.0,21.0,-0.084963091600357,-0.1734695780294416,1
4,8,1,4,68,survey-likert,68,260149,1571.0,0.0,0.0,question_agency,question_agency_7_Lickert,0.0,6.0,5.0,26.0,33.0,-0.24049958313443773,-0.17000721076328384,2
1,8,1,1,93,survey-likert,93,345522,1871.0,0.0,0.0,question_agency,question_agency_7_Lickert,0.0,8.0,6.0,15.0,16.0,0.10053533211845804,-0.09425100685267988,3
0,8,1,0,124,survey-likert,124,455028,2273.0,0.0,0.0,question_agency,question_agency_7_Lickert,0.0,7.0,7.0,9.0,10.0,-0.1503640519833266,-0.007486474005623309,4
3,8,1,3,176,survey-likert,176,646346,1487.0,0.0,0.0,question_agency,question_agency_7_Lickert,0.0,3.0,8.0,1.0,16.0,-0.07163220532348692,-0.02128131255914109,5
7,8,1,7,34,survey-likert,34,140941,1626.0,0.0,0.1,question_agency,question_agency_7_Lickert,-10.0,6.0,5.0,29.0,38.0,-0.3520929932227796,-0.22811241998999782,1
9,8,1,9,74,survey-likert,74,280990,1529.0,0.0,0.1,question_agency,question_agency_7_Lickert,-10.0,6.0,8.0,23.0,22.0,-0.151458464938637,-0.0915248999210153,2
8,8,1,8,108,survey-likert,108,397936,1316.0,0.0,0.1,question_agency,question_agency_7_Lickert,-10.0,7.0,5.0,20.0,20.0,-0.2880078136424273,0.002210439994599981,3
6,8,1,6,148,survey-likert,148,548174,1550.0,16.666666666666668,0.1,question_agency,question_agency_7_Lickert,6.666666666666668,6.0,6.0,11.0,12.0,-0.0029993319351459863,0.08715459873058219,4
5,8,1,5,185,survey-likert,185,680593,1516.0,0.0,0.1,question_agency,question_agency_7_Lickert,-10.0,8.0,5.0,10.0,16.0,-0.20886254611855887,-0.136429835902567,5
10,8,1,10,28,survey-likert,28,119776,3538.0,0.0,0.2,question_agency,question_agency_7_Lickert,-20.0,9.0,9.0,19.0,21.0,0.3247254627540002,-0.02586769379072749,1
14,8,1,14,80,survey-likert,80,302690,1331.0,0.0,0.2,question_agency,question_agency_7_Lickert,-20.0,6.0,7.0,34.0,32.0,-0.3337434362110194,0.00928391251612605,2
12,8,1,12,90,survey-likert,90,334628,1516.0,0.0,0.2,question_agency,question_agency_7_Lickert,-20.0,6.0,9.0,27.0,32.0,-0.16736190577736046,-0.10826306772589629,3
13,8,1,13,151,survey-likert,151,558472,1291.0,0.0,0.2,question_agency,question_agency_7_Lickert,-20.0,9.0,4.0,12.0,12.0,0.08702336238199185,-0.16923218711032104,4
11,8,1,11,182,survey-likert,182,670058,3881.0,16.666666666666668,0.2,question_agency,question_agency_7_Lickert,-3.333333333333332,4.0,6.0,24.0,55.0,-0.38902575936571265,0.040137791631903036,5
18,8,1,18,52,survey-likert,52,205802,1509.0,16.666666666666668,0.3,question_agency,question_agency_7_Lickert,-13.333333333333332,8.0,5.0,18.0,19.0,0.018778351996625066,-0.12271047441998444,1
15,8,1,15,83,survey-likert,83,312707,1472.0,0.0,0.3,question_agency,question_agency_7_Lickert,-30.0,6.0,4.0,23.0,28.0,-0.1696985570594845,-0.16568894048301336,2
19,8,1,19,114,survey-likert,114,422352,1983.0,0.0,0.3,question_agency,question_agency_7_Lickert,-30.0,7.0,8.0,9.0,10.0,-0.051605465762778725,-0.20572873861250393,3
16,8,1,16,133,survey-likert,133,487487,2097.0,0.0,0.3,question_agency,question_agency_7_Lickert,0.0,9.0,5.0,18.0,15.0,0.26697665464300463,0.03175206084000484,4
17,8,1,17,167,survey-likert,167,611990,1213.0,16.666666666666668,0.3,question_agency,question_agency_7_Lickert,-13.333333333333332,6.0,4.0,27.0,26.0,-0.10327171591454302,0.006375430978327967,5
23,8,1,23,40,survey-likert,40,162246,1410.0,50.0,0.4,question_agency,question_agency_7_Lickert,10.0,8.0,10.0,19.0,33.0,-0.3794879947541886,0.04340286452843863,1
24,8,1,24,71,survey-likert,71,270498,1332.0,16.666666666666668,0.4,question_agency,question_agency_7_Lickert,-23.333333333333332,4.0,4.0,18.0,21.0,-0.3174391694241435,-0.28259658943629923,2
21,8,1,21,120,survey-likert,120,443136,1231.0,16.666666666666668,0.4,question_agency,question_agency_7_Lickert,-23.333333333333332,8.0,8.0,17.0,17.0,-0.11880536690178511,-0.07563330767253552,3
20,8,1,20,136,survey-likert,136,498690,2183.0,16.666666666666668,0.4,question_agency,question_agency_7_Lickert,-23.333333333333332,7.0,6.0,10.0,10.0,0.23909318565150753,-0.07038447452438158,4
22,8,1,22,179,survey-likert,179,657141,1781.0,0.0,0.4,question_agency,question_agency_7_Lickert,-40.0,7.0,4.0,27.0,27.0,-0.07843218848446774,-0.02727604514670388,5
29,8,1,29,31,survey-likert,31,130300,1519.0,0.0,0.5,question_agency,question_agency_7_Lickert,-50.0,7.0,5.0,9.0,21.0,-0.5317768572814231,-0.22909486373112672,1
28,8,1,28,65,survey-likert,65,249715,3581.0,16.666666666666668,0.5,question_agency,question_agency_7_Lickert,-33.33333333333333,6.0,8.0,46.0,48.0,-0.05955788983351157,-0.14412321603085565,2
25,8,1,25,111,survey-likert,111,411352,4398.0,0.0,0.5,question_agency,question_agency_7_Lickert,-50.0,7.0,10.0,7.0,14.0,-0.32754968569860543,0.2675528354473647,3
26,8,1,26,127,survey-likert,127,465853,1814.0,16.666666666666668,0.5,question_agency,question_agency_7_Lickert,-33.33333333333333,6.0,9.0,25.0,26.0,-0.01846443090185217,0.13986863906904587,4
27,8,1,27,188,survey-likert,188,692277,2666.0,0.0,0.5,question_agency,question_agency_7_Lickert,-50.0,8.0,7.0,7.0,9.0,0.20771229210471806,0.09897346454420079,5
33,8,1,33,25,survey-likert,25,107230,2782.0,33.333333333333336,0.6,question_agency,question_agency_7_Lickert,-26.666666666666664,9.0,7.0,7.0,15.0,0.03900613574629941,0.3664525946257443,1
32,8,1,32,59,survey-likert,59,226711,1288.0,33.333333333333336,0.6,question_agency,question_agency_7_Lickert,-26.666666666666664,6.0,6.0,16.0,18.0,-0.4260404882260092,-0.07924413823375799,2
31,8,1,31,117,survey-likert,117,432885,1506.0,33.333333333333336,0.6,question_agency,question_agency_7_Lickert,-26.666666666666664,7.0,2.0,24.0,26.0,-0.037126740104464415,0.04332587455659728,3
30,8,1,30,145,survey-likert,145,537609,1953.0,33.333333333333336,0.6,question_agency,question_agency_7_Lickert,-26.666666666666664,5.0,7.0,1.0,3.0,-0.2034529348751073,-0.049668500608746995,4
34,8,1,34,161,survey-likert,161,591173,1164.0,50.0,0.6,question_agency,question_agency_7_Lickert,-10.0,7.0,6.0,12.0,14.0,0.45203426562673743,-0.16094368717426816,5
38,8,1,38,49,survey-likert,49,195280,2082.0,50.0,0.7,question_agency,question_agency_7_Lickert,-20.0,5.0,6.0,13.0,22.0,-0.09930843757211995,-0.33851436457374223,1
39,8,1,39,56,survey-likert,56,216766,1233.0,66.66666666666667,0.7,question_agency,question_agency_7_Lickert,-3.3333333333333286,6.0,8.0,21.0,20.0,0.026618820781422133,-0.07628616206985547,2
37,8,1,37,105,survey-likert,105,387612,1341.0,50.0,0.7,question_agency,question_agency_7_Lickert,-20.0,6.0,8.0,23.0,18.0,0.024937526978782928,-0.1698152777784178,3
36,8,1,36,139,survey-likert,139,508771,1065.0,50.0,0.7,question_agency,question_agency_7_Lickert,-20.0,8.0,9.0,16.0,18.0,0.15403943378447324,-0.07750252110878819,4
35,8,1,35,164,survey-likert,164,601756,1575.0,50.0,0.7,question_agency,question_agency_7_Lickert,-20.0,7.0,5.0,11.0,14.0,0.2875126204520392,-0.006046360763711339,5
43,8,1,43,22,survey-likert,22,95439,4059.0,83.33333333333333,0.8,question_agency,question_agency_7_Lickert,3.3333333333333286,7.0,7.0,11.0,18.0,-0.12778526165269222,-0.33020927275339296,1
41,8,1,41,77,survey-likert,77,292382,2381.0,33.333333333333336,0.8,question_agency,question_agency_7_Lickert,-46.666666666666664,5.0,6.0,17.0,21.0,-0.22130038264174245,-0.3452391706012467,2
40,8,1,40,102,survey-likert,102,377313,1523.0,66.66666666666667,0.8,question_agency,question_agency_7_Lickert,-13.333333333333329,6.0,9.0,18.0,17.0,-0.19770881638490637,0.25936529239402867,3
44,8,1,44,154,survey-likert,154,569263,1755.0,50.0,0.8,question_agency,question_agency_7_Lickert,-30.0,6.0,5.0,18.0,24.0,-0.14918067113787034,-0.009143532256170714,4
42,8,1,42,158,survey-likert,158,580997,1505.0,83.33333333333333,0.8,question_agency,question_agency_7_Lickert,3.3333333333333286,5.0,9.0,14.0,14.0,0.24202009578771802,0.10533303299662057,5
48,8,1,48,46,survey-likert,46,184181,1782.0,83.33333333333333,0.9,question_agency,question_agency_7_Lickert,-6.666666666666671,6.0,7.0,14.0,15.0,0.27148797427796306,-0.20094572827281026,1
49,8,1,49,62,survey-likert,62,237115,1565.0,83.33333333333333,0.9,question_agency,question_agency_7_Lickert,-6.666666666666671,7.0,2.0,12.0,20.0,-0.08063011791315462,-0.20128294380570197,2
45,8,1,45,99,survey-likert,99,366784,1781.0,83.33333333333333,0.9,question_agency,question_agency_7_Lickert,-6.666666666666671,8.0,4.0,6.0,11.0,0.21492309231659845,-0.04369592884927106,3
47,8,1,47,142,survey-likert,142,526645,8865.0,50.0,0.9,question_agency,question_agency_7_Lickert,-40.0,5.0,10.0,6.0,7.0,0.03894148233126784,0.3206106806191724,4
46,8,1,46,173,survey-likert,173,635841,3193.0,66.66666666666667,0.9,question_agency,question_agency_7_Lickert,-23.33333333333333,7.0,7.0,13.0,13.0,0.05068557724038237,-0.1976062083144267,5
54,8,1,54,37,survey-likert,37,151822,1874.0,100.0,1.0,question_agency,question_agency_7_Lickert,0.0,6.0,8.0,23.0,23.0,0.0319045982035052,-0.03191129813754582,1
50,8,1,50,86,survey-likert,86,322957,1235.0,100.0,1.0,question_agency,question_agency_7_Lickert,0.0,5.0,3.0,8.0,11.0,0.508584484578144,0.14550219179315216,2
51,8,1,51,96,survey-likert,96,355992,1455.0,100.0,1.0,question_agency,question_agency_7_Lickert,0.0,3.0,7.0,19.0,31.0,0.027406548178771483,-0.1278155880313784,3
52,8,1,52,130,survey-likert,130,476371,1500.0,100.0,1.0,question_agency,question_agency_7_Lickert,0.0,6.0,7.0,5.0,10.0,-0.27218807102140813,0.1803113593652717,4
53,8,1,53,170,survey-likert,170,623640,2631.0,100.0,1.0,question_agency,question_agency_7_Lickert,0.0,4.0,7.0,14.0,14.0,-0.0034052756112450634,0.2947291325730707,5
4,9,1,4,40,survey-likert,40,181241,2254.0,0.0,0.0,question_agency,question_agency_7_Lickert,0.0,4.0,6.0,16.0,14.0,-0.025116206730215845,-0.25620317737899856,1
0,9,1,0,71,survey-likert,71,321424,1609.0,16.666666666666668,0.0,question_agency,question_agency_7_Lickert,16.666666666666668,10.0,9.0,16.0,10.0,-0.0733158095135067,-0.3205275753408852,2
1,9,1,1,111,survey-likert,111,473426,2468.0,0.0,0.0,question_agency,question_agency_7_Lickert,0.0,9.0,6.0,23.0,19.0,-0.04608724349391959,-0.26710584371988344,3
3,9,1,3,130,survey-likert,130,541767,1355.0,0.0,0.0,question_agency,question_agency_7_Lickert,0.0,4.0,6.0,17.0,38.0,0.17691028756917843,0.07339278871579458,4
2,9,1,2,164,survey-likert,164,680320,2236.0,0.0,0.0,question_agency,question_agency_7_Lickert,0.0,2.0,4.0,4.0,34.0,0.2223998153315402,-0.15420653819292462,5
8,9,1,8,28,survey-likert,28,126739,2731.0,0.0,0.1,question_agency,question_agency_7_Lickert,-10.0,9.0,9.0,12.0,11.0,0.08107064381025711,0.0866792175477707,1
6,9,1,6,86,survey-likert,86,382361,4554.0,16.666666666666668,0.1,question_agency,question_agency_7_Lickert,6.666666666666668,8.0,10.0,11.0,11.0,0.05227115846616347,0.28062436387980083,2
9,9,1,9,114,survey-likert,114,485326,2839.0,0.0,0.1,question_agency,question_agency_7_Lickert,-10.0,7.0,8.0,24.0,23.0,-0.21690088688971704,0.02952018091538261,3
5,9,1,5,154,survey-likert,154,637639,2406.0,0.0,0.1,question_agency,question_agency_7_Lickert,-10.0,4.0,8.0,18.0,5.0,-0.2665242394180244,0.22110522387120252,4
7,9,1,7,179,survey-likert,179,737457,2020.0,0.0,0.1,question_agency,question_agency_7_Lickert,-10.0,7.0,7.0,14.0,14.0,-0.011425336696282443,-0.2967587544817,5
10,9,1,10,43,survey-likert,43,192936,2680.0,16.666666666666668,0.2,question_agency,question_agency_7_Lickert,-3.333333333333332,6.0,10.0,11.0,6.0,0.04965241811077649,0.11928059187514184,1
12,9,1,12,62,survey-likert,62,287136,3409.0,16.666666666666668,0.2,question_agency,question_agency_7_Lickert,-3.333333333333332,5.0,6.0,0.0,0.0,0.0,0.0,2
11,9,1,11,120,survey-likert,120,508195,1839.0,16.666666666666668,0.2,question_agency,question_agency_7_Lickert,-3.333333333333332,4.0,6.0,16.0,14.0,-0.15899924593421105,-0.13026689382996937,3
13,9,1,13,148,survey-likert,148,614532,3552.0,16.666666666666668,0.2,question_agency,question_agency_7_Lickert,-3.333333333333332,7.0,5.0,12.0,14.0,0.010573066222354623,-0.34955951496774773,4
14,9,1,14,170,survey-likert,170,704561,2981.0,0.0,0.2,question_agency,question_agency_7_Lickert,-20.0,8.0,8.0,11.0,16.0,0.20635081591435758,-0.37732953297197536,5
16,9,1,16,22,survey-likert,22,103907,4964.0,0.0,0.3,question_agency,question_agency_7_Lickert,-30.0,6.0,6.0,8.0,7.0,-0.24674923458074394,-0.046246818744146136,1
17,9,1,17,59,survey-likert,59,274711,2408.0,0.0,0.3,question_agency,question_agency_7_Lickert,-30.0,7.0,6.0,0.0,0.0,0.0,0.0,2
15,9,1,15,90,survey-likert,90,394262,1863.0,16.666666666666668,0.3,question_agency,question_agency_7_Lickert,-13.333333333333332,6.0,5.0,15.0,8.0,-0.06058753042151323,0.3409503148030732,3
18,9,1,18,151,survey-likert,151,626212,2672.0,0.0,0.3,question_agency,question_agency_7_Lickert,-30.0,8.0,8.0,22.0,23.0,0.02181137975558524,-0.21252147029247975,4
19,9,1,19,173,survey-likert,173,715580,2007.0,0.0,0.3,question_agency,question_agency_7_Lickert,-30.0,7.0,8.0,9.0,17.0,-0.3965128344940905,-0.18318512343361015,5
22,9,1,22,46,survey-likert,46,203798,1848.0,0.0,0.4,question_agency,question_agency_7_Lickert,-40.0,6.0,7.0,1.0,0.0,0.22433187025579418,0.0,1
20,9,1,20,77,survey-likert,77,344746,1596.0,16.666666666666668,0.4,question_agency,question_agency_7_Lickert,-23.333333333333332,6.0,9.0,12.0,11.0,-0.047335476916223286,-0.18092840855952097,2
24,9,1,24,99,survey-likert,99,429013,2968.0,16.666666666666668,0.4,question_agency,question_agency_7_Lickert,-23.333333333333332,5.0,3.0,10.0,9.0,-0.520267607857276,-0.045062249501514696,3
21,9,1,21,124,survey-likert,124,520037,1055.0,33.333333333333336,0.4,question_agency,question_agency_7_Lickert,-6.666666666666664,8.0,6.0,12.0,9.0,0.0979633975702346,-0.06426675422615147,4
23,9,1,23,182,survey-likert,182,749095,2625.0,16.666666666666668,0.4,question_agency,question_agency_7_Lickert,-23.333333333333332,7.0,5.0,11.0,8.0,-0.6522688191776972,-0.18525777874139152,5
27,9,1,27,31,survey-likert,31,144746,9001.0,33.333333333333336,0.5,question_agency,question_agency_7_Lickert,-16.666666666666664,5.0,7.0,13.0,4.0,-0.0481124749542994,-0.4023373365688515,1
29,9,1,29,65,survey-likert,65,298451,2284.0,0.0,0.5,question_agency,question_agency_7_Lickert,-50.0,8.0,8.0,0.0,0.0,0.0,0.0,2
28,9,1,28,93,survey-likert,93,406251,2942.0,0.0,0.5,question_agency,question_agency_7_Lickert,-50.0,7.0,6.0,12.0,8.0,-0.6802571499856862,-0.04292984902846664,3
25,9,1,25,139,survey-likert,139,577464,2964.0,33.333333333333336,0.5,question_agency,question_agency_7_Lickert,-16.666666666666664,8.0,8.0,6.0,8.0,0.47908358570999204,-0.17728263329403976,4
26,9,1,26,188,survey-likert,188,773942,4392.0,33.333333333333336,0.5,question_agency,question_agency_7_Lickert,-16.666666666666664,7.0,8.0,6.0,9.0,-0.21584261450511488,0.2174347650714855,5
32,9,1,32,34,survey-likert,34,156770,3014.0,33.333333333333336,0.6,question_agency,question_agency_7_Lickert,-26.666666666666664,4.0,6.0,8.0,9.0,-0.4548556468742665,-0.4216505813423885,1
30,9,1,30,74,survey-likert,74,334063,3626.0,50.0,0.6,question_agency,question_agency_7_Lickert,-10.0,10.0,6.0,14.0,5.0,0.13408717131517955,-0.06700220480832543,2
31,9,1,31,96,survey-likert,96,416861,1577.0,66.66666666666667,0.6,question_agency,question_agency_7_Lickert,6.666666666666671,7.0,8.0,12.0,11.0,0.16351663745064396,-0.1065134750348872,3
34,9,1,34,136,survey-likert,136,565483,2492.0,50.0,0.6,question_agency,question_agency_7_Lickert,-10.0,6.0,10.0,9.0,11.0,0.18881242756118535,0.13712931248036708,4
33,9,1,33,167,survey-likert,167,692569,3235.0,33.333333333333336,0.6,question_agency,question_agency_7_Lickert,-26.666666666666664,6.0,7.0,9.0,6.0,-0.53593118909699,-0.11142817605471249,5
35,9,1,35,49,survey-likert,49,215481,2664.0,0.0,0.7,question_agency,question_agency_7_Lickert,-70.0,8.0,7.0,0.0,0.0,0.0,0.0,1
39,9,1,39,80,survey-likert,80,356392,2636.0,66.66666666666667,0.7,question_agency,question_agency_7_Lickert,-3.3333333333333286,10.0,11.0,11.0,8.0,0.07811025637049374,-0.2206857173283735,2
36,9,1,36,102,survey-likert,102,440071,1981.0,83.33333333333333,0.7,question_agency,question_agency_7_Lickert,13.333333333333329,6.0,9.0,12.0,12.0,0.1662808047480472,-0.04718150663813897,3
37,9,1,37,142,survey-likert,142,589720,3233.0,66.66666666666667,0.7,question_agency,question_agency_7_Lickert,-3.3333333333333286,4.0,8.0,9.0,7.0,-0.044036669706490124,-0.13282591315841114,4
38,9,1,38,158,survey-likert,158,654001,4830.0,66.66666666666667,0.7,question_agency,question_agency_7_Lickert,-3.3333333333333286,9.0,9.0,12.0,14.0,0.23221310433873157,0.03688815038646353,5
41,9,1,41,37,survey-likert,37,169959,4169.0,83.33333333333333,0.8,question_agency,question_agency_7_Lickert,3.3333333333333286,5.0,6.0,10.0,9.0,-0.5407603822527334,-0.23042350827655775,1
42,9,1,42,83,survey-likert,83,368785,3369.0,83.33333333333333,0.8,question_agency,question_agency_7_Lickert,3.3333333333333286,9.0,10.0,10.0,4.0,-0.04509937842783206,0.045489880364147216,2
44,9,1,44,105,survey-likert,105,451016,1936.0,83.33333333333333,0.8,question_agency,question_agency_7_Lickert,3.3333333333333286,8.0,6.0,15.0,9.0,-0.32038518773537683,0.02929809335641897,3
43,9,1,43,133,survey-likert,133,553973,3174.0,66.66666666666667,0.8,question_agency,question_agency_7_Lickert,-13.333333333333329,7.0,7.0,6.0,8.0,0.45211534768249995,-0.19278972552384235,4
40,9,1,40,161,survey-likert,161,669055,6033.0,83.33333333333333,0.8,question_agency,question_agency_7_Lickert,3.3333333333333286,6.0,9.0,7.0,18.0,-0.03134450862062645,0.06148932330676212,5
48,9,1,48,52,survey-likert,52,227228,2728.0,0.0,0.9,question_agency,question_agency_7_Lickert,-90.0,8.0,6.0,0.0,0.0,0.0,0.0,1
46,9,1,46,56,survey-likert,56,263191,23923.0,0.0,0.9,question_agency,question_agency_7_Lickert,-90.0,6.0,6.0,0.0,0.0,0.0,0.0,2
47,9,1,47,117,survey-likert,117,497327,2988.0,83.33333333333333,0.9,question_agency,question_agency_7_Lickert,-6.666666666666671,8.0,5.0,17.0,12.0,-0.17046258511209486,-0.20745389512393028,3
49,9,1,49,145,survey-likert,145,601949,3144.0,83.33333333333333,0.9,question_agency,question_agency_7_Lickert,-6.666666666666671,5.0,5.0,21.0,19.0,0.19555836435316898,0.3530964075814202,4
45,9,1,45,185,survey-likert,185,760530,2405.0,83.33333333333333,0.9,question_agency,question_agency_7_Lickert,-6.666666666666671,5.0,8.0,14.0,13.0,0.1548255663591656,-0.08356257143331468,5
54,9,1,54,25,survey-likert,25,114989,2063.0,100.0,1.0,question_agency,question_agency_7_Lickert,0.0,6.0,6.0,15.0,10.0,0.31096237939916405,0.047008691589531915,1
50,9,1,50,68,survey-likert,68,310765,3288.0,100.0,1.0,question_agency,question_agency_7_Lickert,0.0,6.0,6.0,13.0,8.0,0.12421630049280691,0.12557010835667082,2
53,9,1,53,108,survey-likert,108,461903,1869.0,100.0,1.0,question_agency,question_agency_7_Lickert,0.0,7.0,8.0,20.0,19.0,-0.23515909271311175,-0.10054288242451956,3
51,9,1,51,127,survey-likert,127,531370,2266.0,100.0,1.0,question_agency,question_agency_7_Lickert,0.0,8.0,6.0,28.0,12.0,-0.2332066818734793,0.01090522994521477,4
52,9,1,52,176,survey-likert,176,726320,1717.0,100.0,1.0,question_agency,question_agency_7_Lickert,0.0,3.0,4.0,26.0,24.0,0.07517195040097667,-0.11372437501301041,5
0,10,1,0,25,survey-likert,25,139113,3489.0,0.0,0.0,question_agency,question_agency_7_Lickert,0.0,6.0,6.0,12.0,22.0,0.06374217139651145,-0.1623077892273696,1
4,10,1,4,62,survey-likert,62,282429,3021.0,0.0,0.0,question_agency,question_agency_7_Lickert,0.0,8.0,7.0,22.0,12.0,0.23332711636931314,0.031993038983660405,2
2,10,1,2,93,survey-likert,93,406500,1885.0,0.0,0.0,question_agency,question_agency_7_Lickert,0.0,4.0,6.0,30.0,28.0,-0.21346698026737246,-0.362141514728779,3
1,10,1,1,127,survey-likert,127,533525,2093.0,0.0,0.0,question_agency,question_agency_7_Lickert,0.0,6.0,7.0,17.0,32.0,-0.005151060024147311,-0.31818182996783534,4
3,10,1,3,179,survey-likert,179,731710,1898.0,0.0,0.0,question_agency,question_agency_7_Lickert,0.0,4.0,9.0,8.0,20.0,-0.005971091061170348,0.01509129458526853,5
9,10,1,9,37,survey-likert,37,185817,2905.0,0.0,0.1,question_agency,question_agency_7_Lickert,-10.0,9.0,6.0,10.0,14.0,-0.12752556393829603,-0.0525155891143468,1
6,10,1,6,77,survey-likert,77,343890,2247.0,0.0,0.1,question_agency,question_agency_7_Lickert,-10.0,4.0,4.0,14.0,25.0,-0.32659817895174686,-0.21621169485049177,2
8,10,1,8,114,survey-likert,114,486476,2161.0,0.0,0.1,question_agency,question_agency_7_Lickert,-10.0,7.0,7.0,38.0,16.0,-0.2012343369213929,0.0944271075900223,3
7,10,1,7,136,survey-likert,136,567903,1889.0,0.0,0.1,question_agency,question_agency_7_Lickert,-10.0,4.0,7.0,26.0,38.0,-0.4794232137183048,0.043039144624310785,4
5,10,1,5,188,survey-likert,188,766447,2288.0,0.0,0.1,question_agency,question_agency_7_Lickert,-10.0,6.0,7.0,38.0,24.0,-0.02794802831006632,0.021348490965828235,5
12,10,1,12,40,survey-likert,40,198571,3739.0,0.0,0.2,question_agency,question_agency_7_Lickert,-20.0,5.0,7.0,16.0,12.0,-0.336406716857673,-0.12141867548561265,1
11,10,1,11,83,survey-likert,83,370747,6008.0,66.66666666666667,0.2,question_agency,question_agency_7_Lickert,46.66666666666667,6.0,6.0,8.0,16.0,-0.010332515374908676,0.17188727161430314,2
10,10,1,10,117,survey-likert,117,497955,2463.0,50.0,0.2,question_agency,question_agency_7_Lickert,30.0,9.0,8.0,13.0,24.0,-0.12177127316243767,0.19722162206206623,3
14,10,1,14,148,survey-likert,148,614869,4259.0,16.666666666666668,0.2,question_agency,question_agency_7_Lickert,-3.333333333333332,8.0,6.0,14.0,8.0,-0.375602800272244,0.13162027986870048,4
13,10,1,13,167,survey-likert,167,684845,2492.0,0.0,0.2,question_agency,question_agency_7_Lickert,-20.0,8.0,8.0,22.0,30.0,0.06634258028122701,0.26075212414217264,5
19,10,1,19,31,survey-likert,31,162374,2919.0,16.666666666666668,0.3,question_agency,question_agency_7_Lickert,-13.333333333333332,6.0,6.0,6.0,7.0,0.2657101925359706,-0.1991289053057066,1
16,10,1,16,74,survey-likert,74,332629,3884.0,33.333333333333336,0.3,question_agency,question_agency_7_Lickert,3.3333333333333357,5.0,7.0,30.0,37.0,-0.21613163934746404,-0.24156899654882816,2
15,10,1,15,102,survey-likert,102,440739,2939.0,33.333333333333336,0.3,question_agency,question_agency_7_Lickert,3.3333333333333357,4.0,6.0,6.0,26.0,-0.32927753161773493,0.011814387747774963,3
17,10,1,17,124,survey-likert,124,522424,2244.0,83.33333333333333,0.3,question_agency,question_agency_7_Lickert,53.33333333333333,7.0,6.0,9.0,4.0,0.3661742715614032,0.5713000705730669,4
18,10,1,18,182,survey-likert,182,743582,2859.0,16.666666666666668,0.3,question_agency,question_agency_7_Lickert,-13.333333333333332,6.0,8.0,15.0,26.0,0.07934655359203241,-0.02478700173505723,5
21,10,1,21,49,survey-likert,49,233435,2038.0,50.0,0.4,question_agency,question_agency_7_Lickert,10.0,8.0,7.0,8.0,11.0,-0.2376651955393274,-0.35793645749065245,1
20,10,1,20,65,survey-likert,65,294660,3223.0,50.0,0.4,question_agency,question_agency_7_Lickert,10.0,9.0,7.0,31.0,4.0,0.211564371548387,-0.25685009004639936,2
23,10,1,23,111,survey-likert,111,475298,2986.0,66.66666666666667,0.4,question_agency,question_agency_7_Lickert,26.66666666666667,6.0,4.0,36.0,21.0,0.18375477651720806,-0.08348264775562854,3
24,10,1,24,154,survey-likert,154,637325,2716.0,33.333333333333336,0.4,question_agency,question_agency_7_Lickert,-6.666666666666664,6.0,3.0,4.0,45.0,-0.32507049003910726,0.07627431132042371,4
22,10,1,22,164,survey-likert,164,673345,2079.0,66.66666666666667,0.4,question_agency,question_agency_7_Lickert,26.66666666666667,5.0,7.0,5.0,20.0,0.06086375065174006,0.052228682524401555,5
26,10,1,26,43,survey-likert,43,210766,3178.0,66.66666666666667,0.5,question_agency,question_agency_7_Lickert,16.66666666666667,7.0,7.0,10.0,7.0,-0.18533762488877428,-0.32608318114414203,1
28,10,1,28,71,survey-likert,71,319722,4008.0,83.33333333333333,0.5,question_agency,question_agency_7_Lickert,33.33333333333333,8.0,9.0,28.0,14.0,-0.4208642900538561,-0.03187355526948656,2
29,10,1,29,120,survey-likert,120,510005,3033.0,83.33333333333333,0.5,question_agency,question_agency_7_Lickert,33.33333333333333,9.0,8.0,4.0,9.0,0.06791233350880471,0.10231546692567822,3
27,10,1,27,142,survey-likert,142,590224,1740.0,83.33333333333333,0.5,question_agency,question_agency_7_Lickert,33.33333333333333,7.0,9.0,8.0,6.0,0.46607442800318505,0.3931416996389401,4
25,10,1,25,176,survey-likert,176,720803,3035.0,83.33333333333333,0.5,question_agency,question_agency_7_Lickert,33.33333333333333,6.0,8.0,15.0,4.0,-0.1914484271657886,0.48082526821189614,5
34,10,1,34,46,survey-likert,46,222390,2614.0,83.33333333333333,0.6,question_agency,question_agency_7_Lickert,23.33333333333333,9.0,6.0,10.0,9.0,-0.5529907938960934,-0.08261982311698579,1
33,10,1,33,68,survey-likert,68,306695,3030.0,83.33333333333333,0.6,question_agency,question_agency_7_Lickert,23.33333333333333,9.0,7.0,8.0,5.0,-0.08954523202079681,-0.3172578281882146,2
32,10,1,32,96,survey-likert,96,417677,2163.0,83.33333333333333,0.6,question_agency,question_agency_7_Lickert,23.33333333333333,8.0,7.0,6.0,8.0,0.32495140761429386,-0.25110737566157987,3
30,10,1,30,139,survey-likert,139,579471,2560.0,83.33333333333333,0.6,question_agency,question_agency_7_Lickert,23.33333333333333,7.0,4.0,5.0,8.0,0.18837039622511254,-0.3783141393217074,4
31,10,1,31,161,survey-likert,161,662257,2684.0,83.33333333333333,0.6,question_agency,question_agency_7_Lickert,23.33333333333333,5.0,7.0,4.0,8.0,-0.6113629016701961,-0.14656055264810125,5
39,10,1,39,52,survey-likert,52,245004,2562.0,83.33333333333333,0.7,question_agency,question_agency_7_Lickert,13.333333333333329,6.0,8.0,7.0,4.0,-0.07486624493046205,-0.36918838822388494,1
38,10,1,38,56,survey-likert,56,259579,2239.0,83.33333333333333,0.7,question_agency,question_agency_7_Lickert,13.333333333333329,7.0,6.0,10.0,7.0,0.1265479117225598,-0.3061166013607551,2
36,10,1,36,99,survey-likert,99,428793,2095.0,100.0,0.7,question_agency,question_agency_7_Lickert,30.0,6.0,7.0,6.0,6.0,-0.4161812670562156,-0.3192700184625375,3
37,10,1,37,133,survey-likert,133,557005,2554.0,100.0,0.7,question_agency,question_agency_7_Lickert,30.0,6.0,7.0,6.0,6.0,-0.11004876556359246,-0.35232641762485334,4
35,10,1,35,185,survey-likert,185,755149,2557.0,66.66666666666667,0.7,question_agency,question_agency_7_Lickert,-3.3333333333333286,9.0,7.0,29.0,6.0,0.223187249781865,0.39163559981041474,5
42,10,1,42,34,survey-likert,34,173900,2509.0,83.33333333333333,0.8,question_agency,question_agency_7_Lickert,3.3333333333333286,7.0,10.0,11.0,8.0,0.162676774703931,-0.2274097196057686,1
40,10,1,40,59,survey-likert,59,270394,1804.0,100.0,0.8,question_agency,question_agency_7_Lickert,20.0,7.0,7.0,7.0,6.0,-0.24924089262827379,-0.3391283843948399,2
44,10,1,44,90,survey-likert,90,395607,2667.0,100.0,0.8,question_agency,question_agency_7_Lickert,20.0,4.0,5.0,7.0,4.0,-0.0744247193958223,-0.599628006868317,3
41,10,1,41,145,survey-likert,145,601605,2368.0,83.33333333333333,0.8,question_agency,question_agency_7_Lickert,3.3333333333333286,7.0,9.0,6.0,5.0,-0.20189208442765333,-0.11472759352294655,4
43,10,1,43,173,survey-likert,173,708759,2774.0,83.33333333333333,0.8,question_agency,question_agency_7_Lickert,3.3333333333333286,9.0,7.0,5.0,6.0,0.3440682324459322,0.17095854293888318,5
46,10,1,46,22,survey-likert,22,126604,7060.0,83.33333333333333,0.9,question_agency,question_agency_7_Lickert,-6.666666666666671,7.0,7.0,18.0,6.0,0.08674216352148034,0.01683598957431799,1
48,10,1,48,80,survey-likert,80,355732,2825.0,100.0,0.9,question_agency,question_agency_7_Lickert,10.0,7.0,9.0,7.0,6.0,0.48725611700429494,0.1799063080199556,2
49,10,1,49,105,survey-likert,105,452399,2654.0,100.0,0.9,question_agency,question_agency_7_Lickert,10.0,6.0,7.0,5.0,8.0,-0.5882994589837893,0.5823502694457168,3
47,10,1,47,151,survey-likert,151,625595,1717.0,100.0,0.9,question_agency,question_agency_7_Lickert,10.0,7.0,9.0,4.0,6.0,-0.3150664851548085,-0.12356331955582046,4
45,10,1,45,170,survey-likert,170,696973,3116.0,100.0,0.9,question_agency,question_agency_7_Lickert,10.0,7.0,6.0,8.0,7.0,-0.36935236602567567,0.005744351676041164,5
53,10,1,53,28,survey-likert,28,150436,2307.0,100.0,1.0,question_agency,question_agency_7_Lickert,0.0,10.0,6.0,7.0,4.0,0.08120970560935072,0.62854308328314,1
52,10,1,52,86,survey-likert,86,382581,2867.0,100.0,1.0,question_agency,question_agency_7_Lickert,0.0,6.0,7.0,7.0,4.0,-0.3393772225103432,0.29374142065347747,2
51,10,1,51,108,survey-likert,108,463303,1895.0,100.0,1.0,question_agency,question_agency_7_Lickert,0.0,3.0,8.0,3.0,6.0,-0.228011074633699,0.142888979349859,3
50,10,1,50,130,survey-likert,130,545442,2902.0,100.0,1.0,question_agency,question_agency_7_Lickert,0.0,7.0,9.0,6.0,6.0,-0.08819924796705185,-0.05355681065004265,4
54,10,1,54,158,survey-likert,158,650562,3018.0,100.0,1.0,question_agency,question_agency_7_Lickert,0.0,6.0,7.0,4.0,5.0,-0.598098257020228,-0.06731079159094469,5
2,11,1,2,34,survey-likert,34,137166,3085.0,0.0,0.0,question_agency,question_agency_7_Lickert,0.0,6.0,5.0,5.0,24.0,0.4331000616328215,-0.4116121486794579,1
3,11,1,3,65,survey-likert,65,257962,3007.0,16.666666666666668,0.0,question_agency,question_agency_7_Lickert,16.666666666666668,7.0,9.0,10.0,37.0,-0.15765089990101544,-0.10795175889194439,2
1,11,1,1,114,survey-likert,114,463989,3506.0,0.0,0.0,question_agency,question_agency_7_Lickert,0.0,5.0,9.0,33.0,6.0,0.05667615719323425,0.02168733486436394,3
4,11,1,4,130,survey-likert,130,527820,5026.0,33.333333333333336,0.0,question_agency,question_agency_7_Lickert,33.333333333333336,7.0,7.0,14.0,28.0,0.12547522186100443,0.1393782381201717,4
0,11,1,0,170,survey-likert,170,693828,2827.0,0.0,0.0,question_agency,question_agency_7_Lickert,0.0,5.0,7.0,21.0,10.0,-0.21450525655919758,0.3789155477247401,5
9,11,1,9,43,survey-likert,43,172366,3318.0,0.0,0.1,question_agency,question_agency_7_Lickert,-10.0,8.0,9.0,8.0,24.0,-0.05651014733783477,0.0474583896257617,1
8,11,1,8,86,survey-likert,86,344961,4543.0,16.666666666666668,0.1,question_agency,question_agency_7_Lickert,6.666666666666668,7.0,7.0,29.0,20.0,-0.28113676179854025,0.09558214853259968,2
6,11,1,6,111,survey-likert,111,451470,3213.0,16.666666666666668,0.1,question_agency,question_agency_7_Lickert,6.666666666666668,6.0,8.0,2.0,23.0,-0.19639731884438372,0.27919357399205,3
7,11,1,7,142,survey-likert,142,576242,2530.0,16.666666666666668,0.1,question_agency,question_agency_7_Lickert,6.666666666666668,8.0,9.0,22.0,5.0,0.2845605476680122,0.4141068451406287,4
5,11,1,5,188,survey-likert,188,775087,2880.0,0.0,0.1,question_agency,question_agency_7_Lickert,-10.0,7.0,5.0,12.0,6.0,-0.057025933101567707,-0.19970909193743394,5
14,11,1,14,52,survey-likert,52,208467,2881.0,0.0,0.2,question_agency,question_agency_7_Lickert,-20.0,5.0,7.0,4.0,11.0,0.18807072266823874,0.2944505398646848,1
11,11,1,11,74,survey-likert,74,293735,2562.0,16.666666666666668,0.2,question_agency,question_agency_7_Lickert,-3.333333333333332,7.0,7.0,7.0,20.0,0.05752088631093258,-0.23305176605457428,2
12,11,1,12,96,survey-likert,96,386006,4224.0,33.333333333333336,0.2,question_agency,question_agency_7_Lickert,13.333333333333336,9.0,5.0,1.0,6.0,-0.06493821761709437,0.4048988931737014,3
13,11,1,13,151,survey-likert,151,615496,4492.0,16.666666666666668,0.2,question_agency,question_agency_7_Lickert,-3.333333333333332,6.0,7.0,10.0,10.0,0.4195634827278917,0.42477058728747985,4
10,11,1,10,164,survey-likert,164,669868,3015.0,16.666666666666668,0.2,question_agency,question_agency_7_Lickert,-3.333333333333332,4.0,6.0,4.0,11.0,-0.1684565882990966,0.12372611662660633,5
18,11,1,18,28,survey-likert,28,113436,3016.0,16.666666666666668,0.3,question_agency,question_agency_7_Lickert,-13.333333333333332,8.0,8.0,14.0,11.0,0.0513636705004311,0.09332183374510339,1
