,SubNum,Include,level_0,index,trial_type,trial_index,time_elapsed,rt,response,control_level,task_id,screen_id,difference,Key_Release_sim_x,Key_Release_sim_y,Key_Release_p1_x,Key_Release_p1_y,Correlation_x,Correlation_y,block
3,1,1,3,40,survey-likert,40,275596,2929.0,33.333333333333336,0.0,question_agency,question_agency_4_Likert,33.333333333333336,5.0,6.0,4.0,3.0,0.10971225154777574,0.18724845056067374,1
4,1,1,4,74,survey-likert,74,412975,5130.0,0.0,0.0,question_agency,question_agency_4_Likert,0.0,5.0,3.0,2.0,5.0,0.04944548915998083,-0.05033744374060385,2
2,1,1,2,108,survey-likert,108,545711,3024.0,0.0,0.0,question_agency,question_agency_4_Likert,0.0,6.0,8.0,6.0,9.0,-0.061500840657465916,-0.27325712465895424,3
1,1,1,1,124,survey-likert,124,605599,2726.0,0.0,0.0,question_agency,question_agency_4_Likert,0.0,6.0,9.0,4.0,8.0,0.4865480692928404,0.28994447118623773,4
0,1,1,0,164,survey-likert,164,758401,2569.0,0.0,0.0,question_agency,question_agency_4_Likert,0.0,3.0,7.0,4.0,4.0,0.49402312373545004,-0.026250326661093844,5
5,1,1,5,22,survey-likert,22,204336,3075.0,0.0,0.1,question_agency,question_agency_4_Likert,-10.0,8.0,7.0,17.0,26.0,0.1380162599551441,0.11182458341333568,1
8,1,1,8,71,survey-likert,71,398787,3975.0,0.0,0.1,question_agency,question_agency_4_Likert,-10.0,5.0,3.0,4.0,5.0,0.4665839391710875,-0.21310558520649014,2
9,1,1,9,105,survey-likert,105,533680,2616.0,0.0,0.1,question_agency,question_agency_4_Likert,-10.0,8.0,7.0,4.0,6.0,-0.2453763706213933,0.20685522553991706,3
7,1,1,7,154,survey-likert,154,722123,2894.0,0.0,0.1,question_agency,question_agency_4_Likert,-10.0,4.0,7.0,4.0,8.0,-0.2632169287835407,-0.3590480069655931,4
6,1,1,6,176,survey-likert,176,804787,3160.0,33.333333333333336,0.1,question_agency,question_agency_4_Likert,23.333333333333336,7.0,5.0,6.0,9.0,-0.1728230990394025,0.6024118459616158,5
12,1,1,12,25,survey-likert,25,216845,3503.0,33.333333333333336,0.2,question_agency,question_agency_4_Likert,13.333333333333336,10.0,8.0,28.0,26.0,-0.20300213229258335,0.11991641989875801,1
14,1,1,14,56,survey-likert,56,337548,2619.0,0.0,0.2,question_agency,question_agency_4_Likert,-20.0,9.0,7.0,6.0,9.0,0.19012656525910587,0.24547206906373092,2
13,1,1,13,117,survey-likert,117,580933,2555.0,33.333333333333336,0.2,question_agency,question_agency_4_Likert,13.333333333333336,6.0,8.0,4.0,8.0,0.43489274562602537,0.21269135611828913,3
11,1,1,11,127,survey-likert,127,617383,2777.0,0.0,0.2,question_agency,question_agency_4_Likert,-20.0,7.0,7.0,4.0,10.0,0.02119705345048266,-0.03692012464017739,4
10,1,1,10,188,survey-likert,188,851422,2251.0,0.0,0.2,question_agency,question_agency_4_Likert,-20.0,3.0,5.0,4.0,10.0,0.4032866472405288,-0.26274693439318114,5
15,1,1,15,28,survey-likert,28,228752,2900.0,0.0,0.3,question_agency,question_agency_4_Likert,-30.0,7.0,10.0,26.0,28.0,-0.2680996363220364,-0.18311067516356153,1
17,1,1,17,86,survey-likert,86,459773,3052.0,33.333333333333336,0.3,question_agency,question_agency_4_Likert,3.3333333333333357,6.0,6.0,8.0,9.0,0.1193938898805219,0.026964627519650144,2
18,1,1,18,90,survey-likert,90,473946,2714.0,0.0,0.3,question_agency,question_agency_4_Likert,-30.0,9.0,8.0,5.0,8.0,-0.28135397377555804,-0.09978852970629264,3
16,1,1,16,130,survey-likert,130,628989,2598.0,0.0,0.3,question_agency,question_agency_4_Likert,-30.0,5.0,7.0,4.0,8.0,-0.3117121725647152,-0.3257943022350506,4
19,1,1,19,179,survey-likert,179,817049,3208.0,0.0,0.3,question_agency,question_agency_4_Likert,-30.0,5.0,6.0,4.0,6.0,0.0822536411080778,-0.47605210525269714,5
22,1,1,22,49,survey-likert,49,312194,4215.0,33.333333333333336,0.4,question_agency,question_agency_4_Likert,-6.666666666666664,7.0,8.0,15.0,8.0,0.23405112595175345,-0.0033941837026017626,1
24,1,1,24,77,survey-likert,77,424961,2978.0,66.66666666666667,0.4,question_agency,question_agency_4_Likert,26.66666666666667,5.0,6.0,9.0,6.0,0.5551352407526479,0.395309939351101,2
23,1,1,23,93,survey-likert,93,488177,5226.0,0.0,0.4,question_agency,question_agency_4_Likert,-40.0,9.0,8.0,6.0,5.0,0.20672176245878174,0.316191663848059,3
21,1,1,21,148,survey-likert,148,698618,2512.0,33.333333333333336,0.4,question_agency,question_agency_4_Likert,-6.666666666666664,8.0,7.0,4.0,7.0,0.02367219043764281,-0.025478264995060014,4
20,1,1,20,173,survey-likert,173,792619,2537.0,0.0,0.4,question_agency,question_agency_4_Likert,-40.0,7.0,6.0,4.0,4.0,0.2418828066053103,0.06958653020609967,5
27,1,1,27,52,survey-likert,52,324342,3140.0,0.0,0.5,question_agency,question_agency_4_Likert,-50.0,8.0,6.0,10.0,10.0,-0.25616903794320683,-0.13577866080852666,1
29,1,1,29,80,survey-likert,80,436339,2372.0,33.333333333333336,0.5,question_agency,question_agency_4_Likert,-16.666666666666664,5.0,5.0,5.0,8.0,0.13346556777560034,0.06082069248752773,2
28,1,1,28,96,survey-likert,96,499595,2413.0,0.0,0.5,question_agency,question_agency_4_Likert,-50.0,9.0,4.0,10.0,10.0,0.0823109458413854,-0.2142291017077893,3
26,1,1,26,139,survey-likert,139,663529,2643.0,33.333333333333336,0.5,question_agency,question_agency_4_Likert,-16.666666666666664,7.0,6.0,6.0,9.0,0.3526014777883051,-0.2114709554195335,4
25,1,1,25,182,survey-likert,182,828828,2732.0,0.0,0.5,question_agency,question_agency_4_Likert,-50.0,5.0,6.0,6.0,7.0,0.1721427201754875,0.02148983737344946,5
32,1,1,32,46,survey-likert,46,298974,2242.0,66.66666666666667,0.6,question_agency,question_agency_4_Likert,6.666666666666671,5.0,5.0,4.0,8.0,0.11369419164764064,0.17619894980979806,1
30,1,1,30,62,survey-likert,62,361463,3069.0,66.66666666666667,0.6,question_agency,question_agency_4_Likert,6.666666666666671,8.0,9.0,4.0,7.0,-0.3148887301727925,-0.28482113476353266,2
31,1,1,31,99,survey-likert,99,510802,2200.0,66.66666666666667,0.6,question_agency,question_agency_4_Likert,6.666666666666671,6.0,8.0,4.0,8.0,-0.012641337689046225,-0.003663795777479042,3
33,1,1,33,133,survey-likert,133,640060,2063.0,66.66666666666667,0.6,question_agency,question_agency_4_Likert,6.666666666666671,7.0,8.0,6.0,8.0,-0.03709575814188717,0.32350881442861495,4
34,1,1,34,185,survey-likert,185,840164,2330.0,33.333333333333336,0.6,question_agency,question_agency_4_Likert,-26.666666666666664,9.0,6.0,4.0,7.0,-0.12995313014930868,-0.1875831914526619,5
35,1,1,35,37,survey-likert,37,263660,2619.0,66.66666666666667,0.7,question_agency,question_agency_4_Likert,-3.3333333333333286,8.0,9.0,6.0,8.0,0.2660216301577269,0.1932177379975301,1
36,1,1,36,68,survey-likert,68,385784,3090.0,66.66666666666667,0.7,question_agency,question_agency_4_Likert,-3.3333333333333286,4.0,7.0,4.0,6.0,0.083303020436495,-0.304082780538867,2
37,1,1,37,102,survey-likert,102,522058,2249.0,66.66666666666667,0.7,question_agency,question_agency_4_Likert,-3.3333333333333286,9.0,9.0,4.0,8.0,0.05015191104933834,0.052704353152502235,3
39,1,1,39,151,survey-likert,151,710220,2594.0,66.66666666666667,0.7,question_agency,question_agency_4_Likert,-3.3333333333333286,4.0,8.0,4.0,6.0,-0.2794367841649225,-0.3894839027165219,4
38,1,1,38,167,survey-likert,167,770012,2602.0,66.66666666666667,0.7,question_agency,question_agency_4_Likert,-3.3333333333333286,10.0,7.0,4.0,4.0,0.30548799509648983,-0.11412886686274547,5
41,1,1,41,43,survey-likert,43,287726,3123.0,66.66666666666667,0.8,question_agency,question_agency_4_Likert,-13.333333333333329,6.0,8.0,10.0,10.0,0.118479259876711,0.08539618678371245,1
43,1,1,43,83,survey-likert,83,447715,2369.0,100.0,0.8,question_agency,question_agency_4_Likert,20.0,9.0,8.0,4.0,10.0,0.11014217080275387,-0.21453099547968604,2
44,1,1,44,111,survey-likert,111,556877,2159.0,66.66666666666667,0.8,question_agency,question_agency_4_Likert,-13.333333333333329,5.0,8.0,6.0,8.0,0.3108629441070403,0.23336171428065194,3
42,1,1,42,136,survey-likert,136,651878,2812.0,66.66666666666667,0.8,question_agency,question_agency_4_Likert,-13.333333333333329,9.0,8.0,4.0,7.0,0.31882991670888894,0.14755833789950584,4
40,1,1,40,161,survey-likert,161,746825,2923.0,66.66666666666667,0.8,question_agency,question_agency_4_Likert,-13.333333333333329,3.0,6.0,4.0,6.0,0.19820251215893733,-0.14491453489465614,5
46,1,1,46,31,survey-likert,31,240602,2843.0,66.66666666666667,0.9,question_agency,question_agency_4_Likert,-23.33333333333333,7.0,8.0,23.0,24.0,-0.2421975973994884,0.3038269990551836,1
49,1,1,49,59,survey-likert,59,349383,2826.0,100.0,0.9,question_agency,question_agency_4_Likert,10.0,4.0,6.0,4.0,7.0,-0.5332487963972632,0.3633308814582452,2
48,1,1,48,114,survey-likert,114,569370,3486.0,100.0,0.9,question_agency,question_agency_4_Likert,10.0,6.0,9.0,10.0,8.0,-0.26549029552130504,0.19638776434659003,3
45,1,1,45,142,survey-likert,142,675508,2972.0,100.0,0.9,question_agency,question_agency_4_Likert,10.0,6.0,5.0,12.0,5.0,-0.2236079672938146,-0.27119508194619996,4
47,1,1,47,158,survey-likert,158,734894,2520.0,66.66666666666667,0.9,question_agency,question_agency_4_Likert,-23.33333333333333,9.0,9.0,4.0,6.0,-0.06099300445315614,-0.30207332299207257,5
50,1,1,50,34,survey-likert,34,252035,2424.0,100.0,1.0,question_agency,question_agency_4_Likert,0.0,9.0,4.0,10.0,12.0,-0.01793168887757843,-0.1793653945912542,1
52,1,1,52,65,survey-likert,65,373684,3206.0,100.0,1.0,question_agency,question_agency_4_Likert,0.0,4.0,5.0,4.0,7.0,0.08068719945123906,-0.43154656726512924,2
54,1,1,54,120,survey-likert,120,592324,2385.0,100.0,1.0,question_agency,question_agency_4_Likert,0.0,9.0,9.0,4.0,8.0,-0.23604978593792506,0.2975475778474303,3
53,1,1,53,145,survey-likert,145,687095,2580.0,100.0,1.0,question_agency,question_agency_4_Likert,0.0,7.0,7.0,4.0,6.0,-0.6302153478150406,-0.1697443694604971,4
51,1,1,51,170,survey-likert,170,781074,2055.0,100.0,1.0,question_agency,question_agency_4_Likert,0.0,7.0,8.0,4.0,4.0,-0.022696985037753938,0.4681240689151458,5
2,2,1,2,40,survey-likert,40,226837,3031.0,0.0,0.0,question_agency,question_agency_4_Likert,0.0,6.0,4.0,11.0,6.0,-0.5390721172105226,-0.24256648370061967,1
4,2,1,4,62,survey-likert,62,327649,2657.0,0.0,0.0,question_agency,question_agency_4_Likert,0.0,7.0,6.0,5.0,4.0,0.23711318022369574,-0.016336529525579787,2
3,2,1,3,96,survey-likert,96,456788,2764.0,0.0,0.0,question_agency,question_agency_4_Likert,0.0,7.0,6.0,7.0,8.0,0.232710966772784,-0.1578198464781965,3
0,2,1,0,127,survey-likert,127,576417,2190.0,0.0,0.0,question_agency,question_agency_4_Likert,0.0,4.0,6.0,8.0,6.0,0.4310617470541202,0.09030437975067883,4
1,2,1,1,161,survey-likert,161,701854,1987.0,0.0,0.0,question_agency,question_agency_4_Likert,0.0,5.0,6.0,12.0,5.0,0.19262795198857294,0.11152911090684604,5
8,2,1,8,46,survey-likert,46,257851,8368.0,33.333333333333336,0.1,question_agency,question_agency_4_Likert,23.333333333333336,7.0,7.0,3.0,8.0,-0.2714622797653444,-0.2124761901142516,1
9,2,1,9,71,survey-likert,71,361879,2709.0,33.333333333333336,0.1,question_agency,question_agency_4_Likert,23.333333333333336,6.0,4.0,10.0,5.0,-0.4221470992936768,0.002535012917547221,2
7,2,1,7,99,survey-likert,99,470516,4718.0,33.333333333333336,0.1,question_agency,question_agency_4_Likert,23.333333333333336,7.0,5.0,12.0,0.0,0.05285943686294184,0.0,3
5,2,1,5,151,survey-likert,151,667149,2654.0,33.333333333333336,0.1,question_agency,question_agency_4_Likert,23.333333333333336,7.0,5.0,10.0,5.0,0.24612648690031833,0.09015512528583029,4
6,2,1,6,185,survey-likert,185,789800,2619.0,33.333333333333336,0.1,question_agency,question_agency_4_Likert,23.333333333333336,9.0,7.0,10.0,7.0,0.16044171132594376,0.12729083609239686,5
14,2,1,14,28,survey-likert,28,174822,4143.0,0.0,0.2,question_agency,question_agency_4_Likert,-20.0,8.0,6.0,10.0,7.0,0.008557114729852435,0.25017597067048125,1
13,2,1,13,83,survey-likert,83,407573,2240.0,33.333333333333336,0.2,question_agency,question_agency_4_Likert,13.333333333333336,8.0,7.0,11.0,1.0,0.14080470377951324,0.20127240171837085,2
11,2,1,11,102,survey-likert,102,482508,2977.0,33.333333333333336,0.2,question_agency,question_agency_4_Likert,13.333333333333336,5.0,5.0,4.0,9.0,-0.6008297609178366,0.11521649450131989,3
10,2,1,10,136,survey-likert,136,609296,2772.0,0.0,0.2,question_agency,question_agency_4_Likert,-20.0,7.0,6.0,9.0,6.0,-0.12740241504210073,-0.12793456269744757,4
12,2,1,12,170,survey-likert,170,735274,2599.0,33.333333333333336,0.2,question_agency,question_agency_4_Likert,13.333333333333336,5.0,6.0,9.0,6.0,0.19965329277467436,-0.30556636621709893,5
19,2,1,19,43,survey-likert,43,240467,4615.0,33.333333333333336,0.3,question_agency,question_agency_4_Likert,3.3333333333333357,7.0,4.0,5.0,6.0,-0.25265659290093845,-0.3741006413517852,1
15,2,1,15,68,survey-likert,68,350159,2304.0,33.333333333333336,0.3,question_agency,question_agency_4_Likert,3.3333333333333357,6.0,7.0,5.0,14.0,0.21950606189388042,-0.05581727275556833,2
17,2,1,17,108,survey-likert,108,504675,1963.0,33.333333333333336,0.3,question_agency,question_agency_4_Likert,3.3333333333333357,7.0,7.0,8.0,4.0,0.02989120911857391,-0.17909774900717942,3
16,2,1,16,139,survey-likert,139,620687,2383.0,0.0,0.3,question_agency,question_agency_4_Likert,-30.0,7.0,6.0,4.0,5.0,-0.20851276650408454,0.20409368395925753,4
18,2,1,18,176,survey-likert,176,756329,1593.0,33.333333333333336,0.3,question_agency,question_agency_4_Likert,3.3333333333333357,8.0,10.0,8.0,4.0,0.22453264784857022,0.40854734297473805,5
24,2,1,24,37,survey-likert,37,214797,5708.0,0.0,0.4,question_agency,question_agency_4_Likert,-40.0,6.0,7.0,10.0,6.0,-0.0002860373546895337,-0.060429993842434956,1
21,2,1,21,56,survey-likert,56,303442,8465.0,66.66666666666667,0.4,question_agency,question_agency_4_Likert,26.66666666666667,3.0,7.0,6.0,5.0,0.5126326616978965,0.3090725548238569,2
20,2,1,20,105,survey-likert,105,493700,2183.0,33.333333333333336,0.4,question_agency,question_agency_4_Likert,-6.666666666666664,7.0,8.0,11.0,6.0,0.15466732263600536,-0.07995916394769403,3
22,2,1,22,142,survey-likert,142,633078,3374.0,33.333333333333336,0.4,question_agency,question_agency_4_Likert,-6.666666666666664,6.0,5.0,7.0,11.0,0.2585967303022979,-0.06778313972947181,4
23,2,1,23,164,survey-likert,164,713083,2221.0,33.333333333333336,0.4,question_agency,question_agency_4_Likert,-6.666666666666664,9.0,8.0,13.0,0.0,0.2177939466831844,0.0,5
27,2,1,27,34,survey-likert,34,200077,3419.0,33.333333333333336,0.5,question_agency,question_agency_4_Likert,-16.666666666666664,8.0,4.0,9.0,6.0,0.0777826028228208,-0.5852160861521319,1
28,2,1,28,77,survey-likert,77,385150,2697.0,33.333333333333336,0.5,question_agency,question_agency_4_Likert,-16.666666666666664,9.0,7.0,5.0,6.0,-0.46082018908424394,0.07483125584146033,2
26,2,1,26,117,survey-likert,117,539586,1945.0,33.333333333333336,0.5,question_agency,question_agency_4_Likert,-16.666666666666664,7.0,7.0,6.0,3.0,-0.08201929748869563,0.04074304116524174,3
25,2,1,25,133,survey-likert,133,597512,1671.0,33.333333333333336,0.5,question_agency,question_agency_4_Likert,-16.666666666666664,7.0,7.0,10.0,6.0,0.05838715505890989,0.018821269863450125,4
29,2,1,29,173,survey-likert,173,745730,1441.0,33.333333333333336,0.5,question_agency,question_agency_4_Likert,-16.666666666666664,5.0,6.0,10.0,10.0,0.01854173573237483,0.004613721851028168,5
33,2,1,33,52,survey-likert,52,280666,2104.0,66.66666666666667,0.6,question_agency,question_agency_4_Likert,6.666666666666671,8.0,9.0,8.0,5.0,-0.2600667450824955,-0.25199181809589094,1
34,2,1,34,65,survey-likert,65,338849,2192.0,33.333333333333336,0.6,question_agency,question_agency_4_Likert,-26.666666666666664,8.0,7.0,8.0,7.0,0.006102807367256802,-0.23885221136860765,2
30,2,1,30,90,survey-likert,90,432869,2609.0,33.333333333333336,0.6,question_agency,question_agency_4_Likert,-26.666666666666664,5.0,6.0,10.0,6.0,0.026197557977465605,0.04359611439601129,3
32,2,1,32,124,survey-likert,124,565217,4455.0,66.66666666666667,0.6,question_agency,question_agency_4_Likert,6.666666666666671,5.0,6.0,5.0,5.0,0.22454344637918422,0.29180948952836655,4
31,2,1,31,182,survey-likert,182,778169,1701.0,66.66666666666667,0.6,question_agency,question_agency_4_Likert,6.666666666666671,6.0,7.0,11.0,10.0,0.1483612052029598,0.48136858901736224,5
39,2,1,39,25,survey-likert,25,161671,2925.0,33.333333333333336,0.7,question_agency,question_agency_4_Likert,-36.666666666666664,8.0,8.0,8.0,3.0,0.46632202222716895,0.15620064315947232,1
36,2,1,36,86,survey-likert,86,418077,1497.0,33.333333333333336,0.7,question_agency,question_agency_4_Likert,-36.666666666666664,5.0,7.0,9.0,6.0,0.06750349692774937,0.22994420554752548,2
35,2,1,35,93,survey-likert,93,445012,3136.0,66.66666666666667,0.7,question_agency,question_agency_4_Likert,-3.3333333333333286,6.0,8.0,10.0,9.0,-0.2918531206521957,0.17618088380799807,3
38,2,1,38,130,survey-likert,130,586831,1406.0,33.333333333333336,0.7,question_agency,question_agency_4_Likert,-36.666666666666664,8.0,6.0,5.0,13.0,-0.16978796747459918,-0.12942493674366295,4
37,2,1,37,167,survey-likert,167,723667,1575.0,33.333333333333336,0.7,question_agency,question_agency_4_Likert,-36.666666666666664,7.0,5.0,9.0,9.0,-0.1540937876711156,-0.02437359172536217,5
41,2,1,41,22,survey-likert,22,149728,8945.0,66.66666666666667,0.8,question_agency,question_agency_4_Likert,-13.333333333333329,8.0,7.0,5.0,6.0,0.13324271163975202,-0.31860520546427834,1
44,2,1,44,59,survey-likert,59,315978,3517.0,66.66666666666667,0.8,question_agency,question_agency_4_Likert,-13.333333333333329,8.0,7.0,4.0,6.0,-0.5177311943732286,0.17389983554801675,2
43,2,1,43,120,survey-likert,120,550426,1828.0,66.66666666666667,0.8,question_agency,question_agency_4_Likert,-13.333333333333329,5.0,7.0,14.0,17.0,-0.029688839681325848,0.09729865078919575,3
42,2,1,42,145,survey-likert,145,643983,1897.0,66.66666666666667,0.8,question_agency,question_agency_4_Likert,-13.333333333333329,6.0,7.0,14.0,13.0,-0.25661741977706565,-0.019572869758379855,4
40,2,1,40,158,survey-likert,158,690861,1998.0,66.66666666666667,0.8,question_agency,question_agency_4_Likert,-13.333333333333329,7.0,8.0,17.0,11.0,-0.4095882297887243,-0.025820676469559867,5
47,2,1,47,31,survey-likert,31,187638,3795.0,100.0,0.9,question_agency,question_agency_4_Likert,10.0,6.0,3.0,10.0,13.0,0.07082510196843059,-0.07586778066856711,1
46,2,1,46,74,survey-likert,74,373447,2562.0,66.66666666666667,0.9,question_agency,question_agency_4_Likert,-23.33333333333333,7.0,7.0,10.0,13.0,-0.515510728032395,0.19324516486336116,2
45,2,1,45,111,survey-likert,111,517019,3326.0,66.66666666666667,0.9,question_agency,question_agency_4_Likert,-23.33333333333333,5.0,5.0,6.0,9.0,-0.46047115286276913,0.18340849121576824,3
48,2,1,48,148,survey-likert,148,655485,2485.0,66.66666666666667,0.9,question_agency,question_agency_4_Likert,-23.33333333333333,7.0,7.0,12.0,10.0,-0.33259973627811135,0.33610153339950904,4
49,2,1,49,188,survey-likert,188,801352,2535.0,66.66666666666667,0.9,question_agency,question_agency_4_Likert,-23.33333333333333,8.0,8.0,14.0,14.0,-0.4375815610061847,0.13529786709994907,5
53,2,1,53,49,survey-likert,49,269555,2690.0,100.0,1.0,question_agency,question_agency_4_Likert,0.0,7.0,7.0,18.0,9.0,0.04131461083712073,-0.08573748564826197,1
52,2,1,52,80,survey-likert,80,396326,2160.0,100.0,1.0,question_agency,question_agency_4_Likert,0.0,9.0,4.0,10.0,12.0,-0.039766200306033325,-0.37746904679997506,2
51,2,1,51,114,survey-likert,114,528633,2850.0,100.0,1.0,question_agency,question_agency_4_Likert,0.0,8.0,4.0,20.0,16.0,-0.2923815402191058,-0.07451134957901337,3
50,2,1,50,154,survey-likert,154,678453,2289.0,100.0,1.0,question_agency,question_agency_4_Likert,0.0,5.0,4.0,15.0,10.0,0.04766977717682312,0.34086946168452287,4
54,2,1,54,179,survey-likert,179,767457,2121.0,100.0,1.0,question_agency,question_agency_4_Likert,0.0,8.0,8.0,17.0,14.0,-0.07697501071687565,0.08591708931684401,5
4,3,1,4,46,survey-likert,46,175273,2309.0,0.0,0.0,question_agency,question_agency_4_Likert,0.0,7.0,8.0,12.0,18.0,-0.02477725299730658,-0.13007938914845665,1
1,3,1,1,56,survey-likert,56,212453,2489.0,0.0,0.0,question_agency,question_agency_4_Likert,0.0,6.0,6.0,8.0,10.0,-0.08181576086082949,-0.12838955492604942,2
2,3,1,2,102,survey-likert,102,377299,1226.0,0.0,0.0,question_agency,question_agency_4_Likert,0.0,3.0,7.0,24.0,6.0,0.1261013197508872,0.044337474487559723,3
3,3,1,3,142,survey-likert,142,514450,2183.0,0.0,0.0,question_agency,question_agency_4_Likert,0.0,8.0,6.0,18.0,18.0,0.17026894273805065,-0.231407343666187,4
0,3,1,0,188,survey-likert,188,672750,1389.0,0.0,0.0,question_agency,question_agency_4_Likert,0.0,10.0,8.0,10.0,12.0,-0.05875157957112276,0.05559044152479839,5
7,3,1,7,49,survey-likert,49,186981,2703.0,33.333333333333336,0.1,question_agency,question_agency_4_Likert,23.333333333333336,5.0,7.0,10.0,8.0,-0.21367333922800144,-0.11348086733565269,1
8,3,1,8,59,survey-likert,59,222831,1372.0,33.333333333333336,0.1,question_agency,question_agency_4_Likert,23.333333333333336,9.0,9.0,8.0,8.0,-0.2636904259429754,-0.35113691761100707,2
9,3,1,9,114,survey-likert,114,420313,1599.0,33.333333333333336,0.1,question_agency,question_agency_4_Likert,23.333333333333336,8.0,8.0,11.0,20.0,-0.037508355114818696,-0.1323993092919672,3
5,3,1,5,136,survey-likert,136,493334,980.0,33.333333333333336,0.1,question_agency,question_agency_4_Likert,23.333333333333336,8.0,9.0,26.0,24.0,-0.3048966832618274,0.12234068406912135,4
6,3,1,6,176,survey-likert,176,630176,1163.0,33.333333333333336,0.1,question_agency,question_agency_4_Likert,23.333333333333336,5.0,4.0,30.0,6.0,0.09339317343536639,-0.4702477044091869,5
10,3,1,10,40,survey-likert,40,153094,1802.0,0.0,0.2,question_agency,question_agency_4_Likert,-20.0,9.0,7.0,16.0,14.0,0.028938942364686623,-0.10018253713697477,1
13,3,1,13,62,survey-likert,62,235328,3492.0,33.333333333333336,0.2,question_agency,question_agency_4_Likert,13.333333333333336,8.0,9.0,6.0,6.0,-0.34331794743146465,0.14708100550719708,2
14,3,1,14,96,survey-likert,96,355627,1787.0,0.0,0.2,question_agency,question_agency_4_Likert,-20.0,6.0,7.0,21.0,22.0,-0.21962833368767112,-0.195466944534028,3
11,3,1,11,133,survey-likert,133,483351,1409.0,33.333333333333336,0.2,question_agency,question_agency_4_Likert,13.333333333333336,7.0,8.0,32.0,28.0,-0.26108185924072114,-0.1592088449832381,4
12,3,1,12,182,survey-likert,182,651606,1722.0,0.0,0.2,question_agency,question_agency_4_Likert,-20.0,7.0,6.0,6.0,12.0,-0.240895789912662,-0.15858787509905195,5
17,3,1,17,22,survey-likert,22,87222,3672.0,33.333333333333336,0.3,question_agency,question_agency_4_Likert,3.3333333333333357,7.0,4.0,13.0,5.0,-0.13877807776780252,-0.6016112234428872,1
19,3,1,19,65,survey-likert,65,246574,2242.0,66.66666666666667,0.3,question_agency,question_agency_4_Likert,36.66666666666667,5.0,8.0,13.0,10.0,-0.3608167668280468,-0.008220520379762479,2
18,3,1,18,105,survey-likert,105,388098,1797.0,33.333333333333336,0.3,question_agency,question_agency_4_Likert,3.3333333333333357,9.0,7.0,4.0,2.0,-0.24103155050155747,-0.32870360508409624,3
15,3,1,15,139,survey-likert,139,503259,923.0,33.333333333333336,0.3,question_agency,question_agency_4_Likert,3.3333333333333357,5.0,6.0,6.0,6.0,-0.11054127732520526,-0.2086808478688196,4
16,3,1,16,161,survey-likert,161,578068,1558.0,0.0,0.3,question_agency,question_agency_4_Likert,-30.0,5.0,9.0,32.0,12.0,-0.24486140238645263,-0.2535489156971591,5
21,3,1,21,31,survey-likert,31,120839,2059.0,33.333333333333336,0.4,question_agency,question_agency_4_Likert,-6.666666666666664,7.0,5.0,11.0,6.0,0.022766518347822767,-0.030531903446498195,1
24,3,1,24,77,survey-likert,77,288353,1208.0,33.333333333333336,0.4,question_agency,question_agency_4_Likert,-6.666666666666664,7.0,6.0,6.0,4.0,-0.11985617212807091,-0.06070628094435308,2
23,3,1,23,111,survey-likert,111,409706,1919.0,33.333333333333336,0.4,question_agency,question_agency_4_Likert,-6.666666666666664,9.0,6.0,17.0,22.0,-0.040029668267654576,-0.057281598255037425,3
22,3,1,22,124,survey-likert,124,452088,1312.0,33.333333333333336,0.4,question_agency,question_agency_4_Likert,-6.666666666666664,10.0,7.0,14.0,18.0,-0.12317587475486122,-0.2756876184747912,4
20,3,1,20,164,survey-likert,164,588259,1186.0,33.333333333333336,0.4,question_agency,question_agency_4_Likert,-6.666666666666664,7.0,7.0,8.0,26.0,0.05475414504967459,-0.3179080269599074,5
28,3,1,28,28,survey-likert,28,109774,2331.0,33.333333333333336,0.5,question_agency,question_agency_4_Likert,-16.666666666666664,9.0,6.0,12.0,10.0,0.1593036307572484,-0.24916054724351505,1
26,3,1,26,71,survey-likert,71,267449,1217.0,33.333333333333336,0.5,question_agency,question_agency_4_Likert,-16.666666666666664,9.0,7.0,8.0,6.0,-0.40289980530614733,-0.6042828444636197,2
29,3,1,29,90,survey-likert,90,334453,2777.0,33.333333333333336,0.5,question_agency,question_agency_4_Likert,-16.666666666666664,8.0,7.0,10.0,10.0,-0.3020524176924809,-0.09126427973203627,3
27,3,1,27,127,survey-likert,127,462542,1452.0,33.333333333333336,0.5,question_agency,question_agency_4_Likert,-16.666666666666664,7.0,7.0,10.0,8.0,-0.06905198215033329,-0.21658382346525457,4
25,3,1,25,173,survey-likert,173,620008,1553.0,33.333333333333336,0.5,question_agency,question_agency_4_Likert,-16.666666666666664,8.0,7.0,8.0,6.0,0.27854169888718117,-0.16283659791705085,5
32,3,1,32,34,survey-likert,34,131518,1675.0,33.333333333333336,0.6,question_agency,question_agency_4_Likert,-26.666666666666664,6.0,4.0,12.0,14.0,-0.23184862216374935,-0.35470028807745535,1
34,3,1,34,68,survey-likert,68,257226,1649.0,33.333333333333336,0.6,question_agency,question_agency_4_Likert,-26.666666666666664,4.0,5.0,16.0,13.0,-0.3561548891528198,-0.2289709755503047,2
31,3,1,31,120,survey-likert,120,440868,1144.0,33.333333333333336,0.6,question_agency,question_agency_4_Likert,-26.666666666666664,7.0,7.0,6.0,4.0,-0.00612468944002152,0.1257400758870212,3
30,3,1,30,154,survey-likert,154,556339,1182.0,66.66666666666667,0.6,question_agency,question_agency_4_Likert,6.666666666666671,9.0,6.0,12.0,10.0,-0.2984432624111166,0.13417654423128603,4
33,3,1,33,179,survey-likert,179,640880,1699.0,33.333333333333336,0.6,question_agency,question_agency_4_Likert,-26.666666666666664,8.0,6.0,4.0,4.0,-0.2653122261425872,-0.27763740308975887,5
37,3,1,37,37,survey-likert,37,142284,1758.0,33.333333333333336,0.7,question_agency,question_agency_4_Likert,-36.666666666666664,6.0,6.0,13.0,14.0,-0.16453070120273752,-0.39693722278504195,1
36,3,1,36,74,survey-likert,74,278143,1687.0,66.66666666666667,0.7,question_agency,question_agency_4_Likert,-3.3333333333333286,6.0,10.0,15.0,17.0,-0.4276913065182711,-0.17720718488791584,2
35,3,1,35,108,survey-likert,108,398782,1677.0,66.66666666666667,0.7,question_agency,question_agency_4_Likert,-3.3333333333333286,7.0,10.0,13.0,15.0,0.184620526418744,0.4720476921130748,3
38,3,1,38,145,survey-likert,145,524984,1527.0,66.66666666666667,0.7,question_agency,question_agency_4_Likert,-3.3333333333333286,7.0,7.0,17.0,16.0,0.007860254667213294,0.19498340749584359,4
39,3,1,39,167,survey-likert,167,598828,1565.0,66.66666666666667,0.7,question_agency,question_agency_4_Likert,-3.3333333333333286,8.0,7.0,10.0,14.0,-0.09665627319682829,-0.3017503378689796,5
42,3,1,42,43,survey-likert,43,163957,1857.0,66.66666666666667,0.8,question_agency,question_agency_4_Likert,-13.333333333333329,4.0,5.0,18.0,17.0,0.05170372517365163,-0.1560843738310215,1
40,3,1,40,86,survey-likert,86,320244,1939.0,66.66666666666667,0.8,question_agency,question_agency_4_Likert,-13.333333333333329,9.0,7.0,12.0,14.0,-0.002399445828674884,-0.36226485096819006,2
44,3,1,44,117,survey-likert,117,430719,1402.0,66.66666666666667,0.8,question_agency,question_agency_4_Likert,-13.333333333333329,6.0,8.0,4.0,4.0,0.15242644893878599,0.03487752938127325,3
43,3,1,43,148,survey-likert,148,535308,1321.0,66.66666666666667,0.8,question_agency,question_agency_4_Likert,-13.333333333333329,6.0,10.0,4.0,4.0,-0.16851287060860357,-0.25375385202717077,4
41,3,1,41,158,survey-likert,158,567507,1369.0,66.66666666666667,0.8,question_agency,question_agency_4_Likert,-13.333333333333329,6.0,7.0,6.0,6.0,0.11817013176591969,-0.08717290455817372,5
46,3,1,46,52,survey-likert,52,197743,1754.0,66.66666666666667,0.9,question_agency,question_agency_4_Likert,-23.33333333333333,10.0,5.0,18.0,14.0,-0.27722742491810615,0.1385746884897021,1
47,3,1,47,83,survey-likert,83,309302,1478.0,66.66666666666667,0.9,question_agency,question_agency_4_Likert,-23.33333333333333,7.0,3.0,10.0,10.0,-0.06162098014750497,0.0506533961612917,2
49,3,1,49,93,survey-likert,93,344837,1381.0,66.66666666666667,0.9,question_agency,question_agency_4_Likert,-23.33333333333333,7.0,9.0,6.0,4.0,0.21305340380026172,0.19894637847034638,3
48,3,1,48,151,survey-likert,151,546151,1838.0,100.0,0.9,question_agency,question_agency_4_Likert,10.0,4.0,5.0,10.0,10.0,-0.08045615615142368,0.1736265111970912,4
45,3,1,45,170,survey-likert,170,609451,1617.0,100.0,0.9,question_agency,question_agency_4_Likert,10.0,9.0,5.0,6.0,6.0,0.25741240776274715,-0.11736063452720119,5
52,3,1,52,25,survey-likert,25,98438,2212.0,100.0,1.0,question_agency,question_agency_4_Likert,0.0,7.0,8.0,20.0,10.0,-0.08405847960037832,-0.01549405259132483,1
53,3,1,53,80,survey-likert,80,298815,1459.0,100.0,1.0,question_agency,question_agency_4_Likert,0.0,5.0,7.0,10.0,8.0,-0.18531733547148677,0.34376453796732465,2
54,3,1,54,99,survey-likert,99,367070,2436.0,100.0,1.0,question_agency,question_agency_4_Likert,0.0,7.0,8.0,14.0,12.0,-0.1542949846781413,-0.038364309748296244,3
50,3,1,50,130,survey-likert,130,472939,1389.0,100.0,1.0,question_agency,question_agency_4_Likert,0.0,10.0,9.0,4.0,2.0,-0.18163772289825242,-0.0195963909493426,4
51,3,1,51,185,survey-likert,185,662355,1745.0,100.0,1.0,question_agency,question_agency_4_Likert,0.0,11.0,8.0,4.0,2.0,-0.05611593482076468,-0.004414096505940592,5
2,4,1,2,52,survey-likert,52,210989,2461.0,0.0,0.0,question_agency,question_agency_4_Likert,0.0,8.0,8.0,13.0,10.0,0.042338514302244064,0.19897074667591547,1
4,4,1,4,74,survey-likert,74,292821,2412.0,0.0,0.0,question_agency,question_agency_4_Likert,0.0,8.0,6.0,17.0,18.0,0.2744749760418239,0.19107279124517793,2
0,4,1,0,102,survey-likert,102,393837,1972.0,0.0,0.0,question_agency,question_agency_4_Likert,0.0,11.0,11.0,3.0,8.0,-0.07528908995816101,0.12298306950535627,3
3,4,1,3,133,survey-likert,133,503750,1749.0,0.0,0.0,question_agency,question_agency_4_Likert,0.0,8.0,11.0,5.0,6.0,-0.08575577612841097,0.26659870828287524,4
1,4,1,1,167,survey-likert,167,628822,1462.0,0.0,0.0,question_agency,question_agency_4_Likert,0.0,8.0,5.0,8.0,6.0,-0.14605422187966893,-0.43428272848313165,5
5,4,1,5,31,survey-likert,31,129813,1917.0,0.0,0.1,question_agency,question_agency_4_Likert,-10.0,7.0,8.0,9.0,6.0,0.27737955053474606,-0.10248566139857691,1
9,4,1,9,83,survey-likert,83,325837,2381.0,0.0,0.1,question_agency,question_agency_4_Likert,-10.0,8.0,7.0,15.0,15.0,0.19761857282432702,-0.1985149103698865,2
6,4,1,6,120,survey-likert,120,460110,1901.0,0.0,0.1,question_agency,question_agency_4_Likert,-10.0,9.0,8.0,11.0,8.0,0.12020960553337708,0.46896325364856556,3
8,4,1,8,124,survey-likert,124,472158,1877.0,0.0,0.1,question_agency,question_agency_4_Likert,-10.0,6.0,4.0,6.0,4.0,0.20603835353115973,-0.20195368486697152,4
7,4,1,7,170,survey-likert,170,639606,1775.0,0.0,0.1,question_agency,question_agency_4_Likert,-10.0,9.0,6.0,12.0,9.0,-0.199192117857546,-0.1583906067437423,5
13,4,1,13,46,survey-likert,46,188549,3714.0,0.0,0.2,question_agency,question_agency_4_Likert,-20.0,6.0,6.0,10.0,8.0,0.1447448558421181,-0.23168149951796846,1
14,4,1,14,86,survey-likert,86,336829,1988.0,0.0,0.2,question_agency,question_agency_4_Likert,-20.0,8.0,7.0,11.0,10.0,-0.07914744286375025,-0.4740994678050572,2
11,4,1,11,111,survey-likert,111,426813,1946.0,0.0,0.2,question_agency,question_agency_4_Likert,-20.0,5.0,5.0,13.0,8.0,-0.11378500234005916,0.06383142471342447,3
10,4,1,10,148,survey-likert,148,557470,1827.0,0.0,0.2,question_agency,question_agency_4_Likert,-20.0,6.0,5.0,14.0,14.0,0.0456061397705233,0.025196984550659007,4
12,4,1,12,182,survey-likert,182,682446,1596.0,0.0,0.2,question_agency,question_agency_4_Likert,-20.0,9.0,9.0,10.0,8.0,-0.18074970041649993,-0.15310211933910944,5
18,4,1,18,40,survey-likert,40,164853,2369.0,0.0,0.3,question_agency,question_agency_4_Likert,-30.0,7.0,8.0,10.0,6.0,0.03613531644496242,-0.33207077176615574,1
17,4,1,17,65,survey-likert,65,258973,2190.0,0.0,0.3,question_agency,question_agency_4_Likert,-30.0,7.0,7.0,19.0,12.0,-0.13341959937352632,-0.16968362159759945,2
19,4,1,19,117,survey-likert,117,449206,2965.0,0.0,0.3,question_agency,question_agency_4_Likert,-30.0,8.0,10.0,3.0,4.0,-0.32259996071506647,-0.3921915831990694,3
15,4,1,15,127,survey-likert,127,482414,1243.0,33.333333333333336,0.3,question_agency,question_agency_4_Likert,3.3333333333333357,7.0,6.0,8.0,8.0,-0.09121074863420912,0.4499003963438901,4
16,4,1,16,188,survey-likert,188,704598,2463.0,0.0,0.3,question_agency,question_agency_4_Likert,-30.0,5.0,6.0,13.0,10.0,0.2158965658501995,-0.278432615983123,5
24,4,1,24,25,survey-likert,25,108205,2741.0,33.333333333333336,0.4,question_agency,question_agency_4_Likert,-6.666666666666664,5.0,5.0,11.0,7.0,-0.14902512732803216,-0.41346373794340285,1
22,4,1,22,56,survey-likert,56,225821,3402.0,0.0,0.4,question_agency,question_agency_4_Likert,-40.0,6.0,7.0,12.0,11.0,-0.3638112070467236,-0.03070769628819702,2
21,4,1,21,90,survey-likert,90,348741,1829.0,0.0,0.4,question_agency,question_agency_4_Likert,-40.0,3.0,8.0,12.0,12.0,-0.0016748392896844243,0.011374374217802562,3
20,4,1,20,136,survey-likert,136,514390,1633.0,0.0,0.4,question_agency,question_agency_4_Likert,-40.0,7.0,7.0,11.0,8.0,-0.1617657721649003,-0.2657424262174615,4
23,4,1,23,185,survey-likert,185,693126,1675.0,33.333333333333336,0.4,question_agency,question_agency_4_Likert,-6.666666666666664,6.0,6.0,16.0,12.0,-0.38059860469442436,-0.06119199655179584,5
29,4,1,29,34,survey-likert,34,142245,3429.0,33.333333333333336,0.5,question_agency,question_agency_4_Likert,-16.666666666666664,7.0,6.0,11.0,7.0,0.1931760133664994,-0.20100261272497566,1
26,4,1,26,80,survey-likert,80,314445,1906.0,0.0,0.5,question_agency,question_agency_4_Likert,-50.0,5.0,9.0,10.0,8.0,-0.04260543036034069,0.057261259762209055,2
25,4,1,25,114,survey-likert,114,437237,1419.0,33.333333333333336,0.5,question_agency,question_agency_4_Likert,-16.666666666666664,8.0,7.0,4.0,7.0,0.38547617096250164,-0.37126802664748565,3
27,4,1,27,151,survey-likert,151,568278,1804.0,33.333333333333336,0.5,question_agency,question_agency_4_Likert,-16.666666666666664,6.0,7.0,13.0,8.0,-0.23614405728714052,0.18696779948116626,4
28,4,1,28,158,survey-likert,158,589894,1483.0,66.66666666666667,0.5,question_agency,question_agency_4_Likert,16.66666666666667,8.0,8.0,9.0,10.0,0.5451347534950338,0.2632859965588285,5
33,4,1,33,28,survey-likert,28,118885,1675.0,33.333333333333336,0.6,question_agency,question_agency_4_Likert,-26.666666666666664,7.0,5.0,9.0,12.0,-0.21621382883607407,-0.053514467829528976,1
34,4,1,34,62,survey-likert,62,247781,1893.0,33.333333333333336,0.6,question_agency,question_agency_4_Likert,-26.666666666666664,5.0,6.0,15.0,15.0,0.015318867727315642,-0.13207540225152858,2
32,4,1,32,105,survey-likert,105,405045,2197.0,33.333333333333336,0.6,question_agency,question_agency_4_Likert,-26.666666666666664,9.0,6.0,7.0,8.0,-0.5193228815558262,-0.34119462947130563,3
31,4,1,31,142,survey-likert,142,536182,2157.0,66.66666666666667,0.6,question_agency,question_agency_4_Likert,6.666666666666671,8.0,8.0,8.0,11.0,0.17094413674488199,-0.1649348308706256,4
30,4,1,30,164,survey-likert,164,618358,5779.0,66.66666666666667,0.6,question_agency,question_agency_4_Likert,6.666666666666671,8.0,6.0,7.0,6.0,-0.26389085095498055,-0.0925265057638164,5
37,4,1,37,22,survey-likert,22,96461,4164.0,33.333333333333336,0.7,question_agency,question_agency_4_Likert,-36.666666666666664,5.0,4.0,10.0,9.0,0.26309040562965186,-0.23996154463719122,1
39,4,1,39,77,survey-likert,77,303525,1699.0,33.333333333333336,0.7,question_agency,question_agency_4_Likert,-36.666666666666664,8.0,7.0,15.0,15.0,-0.109634861738745,0.035411925354783866,2
35,4,1,35,99,survey-likert,99,382861,3434.0,33.333333333333336,0.7,question_agency,question_agency_4_Likert,-36.666666666666664,8.0,9.0,2.0,6.0,0.01581718247871109,-0.05700601764980002,3
38,4,1,38,130,survey-likert,130,492990,1574.0,66.66666666666667,0.7,question_agency,question_agency_4_Likert,-3.3333333333333286,5.0,7.0,3.0,8.0,0.3262478373886857,-0.45925507666311005,4
36,4,1,36,179,survey-likert,179,671838,1593.0,33.333333333333336,0.7,question_agency,question_agency_4_Likert,-36.666666666666664,8.0,7.0,11.0,8.0,-0.3681110520563688,0.2688229532221749,5
42,4,1,42,43,survey-likert,43,175829,1971.0,66.66666666666667,0.8,question_agency,question_agency_4_Likert,-13.333333333333329,8.0,7.0,7.0,12.0,-0.04215946154236423,-0.36595917242039033,1
44,4,1,44,59,survey-likert,59,236885,2048.0,66.66666666666667,0.8,question_agency,question_agency_4_Likert,-13.333333333333329,6.0,5.0,11.0,10.0,0.11509175209871604,-0.3861965521761105,2
43,4,1,43,108,survey-likert,108,415861,1812.0,66.66666666666667,0.8,question_agency,question_agency_4_Likert,-13.333333333333329,4.0,5.0,5.0,9.0,0.18507457662596294,0.12089094812291422,3
40,4,1,40,139,survey-likert,139,525014,1615.0,66.66666666666667,0.8,question_agency,question_agency_4_Likert,-13.333333333333329,5.0,6.0,7.0,11.0,-0.0695935415801203,-0.5600602101661426,4
41,4,1,41,176,survey-likert,176,661238,2068.0,66.66666666666667,0.8,question_agency,question_agency_4_Likert,-13.333333333333329,7.0,9.0,5.0,6.0,0.19966595452554475,0.4365552291478746,5
45,4,1,45,49,survey-likert,49,199525,2114.0,100.0,0.9,question_agency,question_agency_4_Likert,10.0,7.0,4.0,16.0,15.0,-0.12022290457440496,0.19288505523311017,1
47,4,1,47,71,survey-likert,71,281397,1756.0,100.0,0.9,question_agency,question_agency_4_Likert,10.0,10.0,7.0,14.0,15.0,0.5473086705856707,0.19480064947573525,2
46,4,1,46,93,survey-likert,93,359565,1819.0,66.66666666666667,0.9,question_agency,question_agency_4_Likert,-23.33333333333333,5.0,5.0,6.0,7.0,-0.46153952481326155,-0.49776597719019866,3
49,4,1,49,154,survey-likert,154,578414,1126.0,66.66666666666667,0.9,question_agency,question_agency_4_Likert,-23.33333333333333,8.0,8.0,3.0,8.0,0.08107105657874085,-0.1542207963874896,4
48,4,1,48,161,survey-likert,161,603574,4664.0,100.0,0.9,question_agency,question_agency_4_Likert,10.0,6.0,4.0,7.0,8.0,-0.2575435381344372,-0.2088063072605419,5
51,4,1,51,37,survey-likert,37,153477,2227.0,100.0,1.0,question_agency,question_agency_4_Likert,0.0,7.0,11.0,18.0,16.0,-0.23900978692828137,-0.20471264554188556,1
50,4,1,50,68,survey-likert,68,270637,2655.0,100.0,1.0,question_agency,question_agency_4_Likert,0.0,4.0,8.0,15.0,16.0,-0.15371574843090713,0.14419321156574968,2
54,4,1,54,96,survey-likert,96,370421,1851.0,100.0,1.0,question_agency,question_agency_4_Likert,0.0,7.0,6.0,4.0,6.0,0.29419314369825145,-0.4301283597285028,3
53,4,1,53,145,survey-likert,145,546638,1446.0,100.0,1.0,question_agency,question_agency_4_Likert,0.0,8.0,11.0,12.0,14.0,-0.025058769447047647,-0.06594812102862922,4
52,4,1,52,173,survey-likert,173,650166,1551.0,100.0,1.0,question_agency,question_agency_4_Likert,0.0,7.0,8.0,5.0,4.0,0.10700609173830447,0.15895805488858056,5
3,5,1,3,34,survey-likert,34,151818,2776.0,0.0,0.0,question_agency,question_agency_4_Likert,0.0,5.0,5.0,4.0,25.0,-0.41595748221903117,0.029039922461022435,1
0,5,1,0,68,survey-likert,68,280615,2321.0,0.0,0.0,question_agency,question_agency_4_Likert,0.0,9.0,8.0,12.0,20.0,-0.028818857364733736,-0.2339451063170871,2
4,5,1,4,117,survey-likert,117,468885,2867.0,0.0,0.0,question_agency,question_agency_4_Likert,0.0,7.0,6.0,11.0,28.0,-0.020442756688086018,0.2658946156151991,3
1,5,1,1,145,survey-likert,145,578363,2411.0,0.0,0.0,question_agency,question_agency_4_Likert,0.0,9.0,9.0,13.0,36.0,0.2905891735285148,0.0419556597034152,4
2,5,1,2,170,survey-likert,170,674419,3319.0,0.0,0.0,question_agency,question_agency_4_Likert,0.0,7.0,7.0,5.0,40.0,-0.19412172369462058,-0.07661097012375664,5
8,5,1,8,52,survey-likert,52,220841,2182.0,0.0,0.1,question_agency,question_agency_4_Likert,-10.0,6.0,7.0,9.0,23.0,-0.2201021952275513,-0.18489811120426788,1
9,5,1,9,56,survey-likert,56,233640,2155.0,0.0,0.1,question_agency,question_agency_4_Likert,-10.0,5.0,7.0,19.0,9.0,-0.0721587957684557,0.037658233656458165,2
6,5,1,6,102,survey-likert,102,410258,2354.0,0.0,0.1,question_agency,question_agency_4_Likert,-10.0,6.0,6.0,13.0,26.0,0.14128296297345258,0.21206831317446817,3
5,5,1,5,139,survey-likert,139,555790,2254.0,0.0,0.1,question_agency,question_agency_4_Likert,-10.0,6.0,7.0,32.0,1.0,-0.14416337025979195,0.40007453769537454,4
7,5,1,7,161,survey-likert,161,638913,3031.0,0.0,0.1,question_agency,question_agency_4_Likert,-10.0,5.0,5.0,4.0,47.0,-0.18763274942108735,0.054200087500545044,5
13,5,1,13,43,survey-likert,43,185395,2409.0,0.0,0.2,question_agency,question_agency_4_Likert,-20.0,9.0,5.0,6.0,4.0,-0.11372264963886583,0.238479877060673,1
11,5,1,11,71,survey-likert,71,291803,2183.0,33.333333333333336,0.2,question_agency,question_agency_4_Likert,13.333333333333336,7.0,9.0,9.0,7.0,0.4210053706188682,0.5030355498357985,2
14,5,1,14,111,survey-likert,111,444862,2675.0,0.0,0.2,question_agency,question_agency_4_Likert,-20.0,6.0,5.0,20.0,23.0,0.09656776960704415,-0.08517790867272061,3
10,5,1,10,151,survey-likert,151,600995,2239.0,0.0,0.2,question_agency,question_agency_4_Likert,-20.0,8.0,9.0,16.0,29.0,-0.06600443812601466,0.2945889499689936,4
12,5,1,12,179,survey-likert,179,707329,2210.0,0.0,0.2,question_agency,question_agency_4_Likert,-20.0,7.0,6.0,21.0,3.0,0.1300082077668259,0.3830326154003483,5
17,5,1,17,28,survey-likert,28,128819,2407.0,33.333333333333336,0.3,question_agency,question_agency_4_Likert,3.3333333333333357,8.0,7.0,9.0,8.0,-0.2150111506738448,0.12306224042710683,1
19,5,1,19,62,survey-likert,62,258154,4278.0,0.0,0.3,question_agency,question_agency_4_Likert,-30.0,6.0,5.0,9.0,31.0,0.49459745559496743,0.3132840856029467,2
16,5,1,16,120,survey-likert,120,480305,2415.0,0.0,0.3,question_agency,question_agency_4_Likert,-30.0,8.0,5.0,5.0,37.0,0.07137067445471337,0.24344178591914517,3
18,5,1,18,124,survey-likert,124,494852,4271.0,33.333333333333336,0.3,question_agency,question_agency_4_Likert,3.3333333333333357,8.0,8.0,8.0,22.0,0.37872457785062696,0.44722128797134447,4
15,5,1,15,158,survey-likert,158,626879,1882.0,33.333333333333336,0.3,question_agency,question_agency_4_Likert,3.3333333333333357,8.0,9.0,11.0,39.0,0.04556496872459176,0.17657276484275886,5
23,5,1,23,31,survey-likert,31,140036,2211.0,33.333333333333336,0.4,question_agency,question_agency_4_Likert,-6.666666666666664,7.0,5.0,4.0,10.0,0.015748405571962488,0.0062625282794180745,1
22,5,1,22,77,survey-likert,77,315099,2973.0,33.333333333333336,0.4,question_agency,question_agency_4_Likert,-6.666666666666664,5.0,5.0,3.0,27.0,0.11590568118435773,0.1130432627922768,2
21,5,1,21,99,survey-likert,99,398900,2409.0,0.0,0.4,question_agency,question_agency_4_Likert,-40.0,9.0,7.0,19.0,15.0,-0.13846518590574003,-0.3126259954245062,3
20,5,1,20,130,survey-likert,130,520475,4460.0,0.0,0.4,question_agency,question_agency_4_Likert,-40.0,6.0,7.0,13.0,53.0,-0.4337328689195706,0.08375181346831423,4
24,5,1,24,188,survey-likert,188,740865,2097.0,33.333333333333336,0.4,question_agency,question_agency_4_Likert,-6.666666666666664,5.0,9.0,3.0,19.0,0.4680183198173721,0.31319379475958636,5
28,5,1,28,49,survey-likert,49,209652,2841.0,0.0,0.5,question_agency,question_agency_4_Likert,-50.0,5.0,7.0,9.0,30.0,-0.37456334358132304,-0.18733571555354767,1
26,5,1,26,83,survey-likert,83,338619,3426.0,33.333333333333336,0.5,question_agency,question_agency_4_Likert,-16.666666666666664,8.0,4.0,4.0,5.0,-0.243955123221218,0.5230205100133487,2
25,5,1,25,93,survey-likert,93,375181,2674.0,0.0,0.5,question_agency,question_agency_4_Likert,-50.0,3.0,5.0,15.0,13.0,-0.4624313503957368,0.5497086153240611,3
27,5,1,27,154,survey-likert,154,613384,3383.0,33.333333333333336,0.5,question_agency,question_agency_4_Likert,-16.666666666666664,6.0,3.0,5.0,24.0,0.25972221687745733,-0.29552828274463233,4
29,5,1,29,182,survey-likert,182,717967,1632.0,33.333333333333336,0.5,question_agency,question_agency_4_Likert,-16.666666666666664,7.0,8.0,7.0,27.0,-0.15735658604609692,-0.19764161665998653,5
34,5,1,34,46,survey-likert,46,197807,3406.0,33.333333333333336,0.6,question_agency,question_agency_4_Likert,-26.666666666666664,9.0,5.0,8.0,7.0,-0.041842274225020494,-0.012251809208192155,1
33,5,1,33,86,survey-likert,86,350413,2788.0,66.66666666666667,0.6,question_agency,question_agency_4_Likert,6.666666666666671,6.0,8.0,2.0,13.0,-0.10381387494769911,0.10787477013468258,2
32,5,1,32,105,survey-likert,105,422080,2816.0,33.333333333333336,0.6,question_agency,question_agency_4_Likert,-26.666666666666664,4.0,5.0,11.0,21.0,0.39583824717717625,-0.49529222295989433,3
30,5,1,30,127,survey-likert,127,507007,3149.0,33.333333333333336,0.6,question_agency,question_agency_4_Likert,-26.666666666666664,6.0,6.0,14.0,3.0,-0.31331840292366103,0.16068541734923694,4
31,5,1,31,176,survey-likert,176,696113,1992.0,66.66666666666667,0.6,question_agency,question_agency_4_Likert,6.666666666666671,6.0,4.0,3.0,12.0,0.27752824557053996,-0.05484016567339531,5
37,5,1,37,37,survey-likert,37,163113,2288.0,33.333333333333336,0.7,question_agency,question_agency_4_Likert,-36.666666666666664,8.0,5.0,5.0,7.0,-0.3291357066795944,0.16808593367183527,1
35,5,1,35,74,survey-likert,74,303119,2308.0,66.66666666666667,0.7,question_agency,question_agency_4_Likert,-3.3333333333333286,8.0,9.0,4.0,7.0,0.4252651713305466,0.2634325845681474,2
38,5,1,38,90,survey-likert,90,363500,2801.0,66.66666666666667,0.7,question_agency,question_agency_4_Likert,-3.3333333333333286,7.0,8.0,5.0,9.0,0.11997913558601825,0.3110742524423271,3
39,5,1,39,148,survey-likert,148,589749,2379.0,66.66666666666667,0.7,question_agency,question_agency_4_Likert,-3.3333333333333286,5.0,7.0,4.0,14.0,-0.09152960651653719,0.48589431638431946,4
36,5,1,36,185,survey-likert,185,729763,2791.0,66.66666666666667,0.7,question_agency,question_agency_4_Likert,-3.3333333333333286,5.0,6.0,5.0,10.0,0.0388149010458605,-0.011988165389436423,5
42,5,1,42,40,survey-likert,40,173980,1861.0,66.66666666666667,0.8,question_agency,question_agency_4_Likert,-13.333333333333329,6.0,6.0,7.0,8.0,0.01443441872727135,0.03421348420105237,1
44,5,1,44,59,survey-likert,59,244871,2224.0,66.66666666666667,0.8,question_agency,question_agency_4_Likert,-13.333333333333329,9.0,5.0,7.0,6.0,-0.1389062056036411,0.3794955205038864,2
40,5,1,40,96,survey-likert,96,387485,3298.0,66.66666666666667,0.8,question_agency,question_agency_4_Likert,-13.333333333333329,7.0,4.0,5.0,14.0,0.18090049501156952,0.19925989807063862,3
41,5,1,41,133,survey-likert,133,532888,3407.0,66.66666666666667,0.8,question_agency,question_agency_4_Likert,-13.333333333333329,5.0,4.0,7.0,9.0,-0.00038186776810153906,-0.21937027859517275,4
43,5,1,43,164,survey-likert,164,650800,2883.0,66.66666666666667,0.8,question_agency,question_agency_4_Likert,-13.333333333333329,10.0,6.0,5.0,12.0,0.009346290958755133,-0.14302833177939112,5
46,5,1,46,22,survey-likert,22,105767,3216.0,100.0,0.9,question_agency,question_agency_4_Likert,10.0,8.0,4.0,10.0,9.0,-0.29878186084467384,0.5030436510042071,1
48,5,1,48,80,survey-likert,80,326185,2079.0,100.0,0.9,question_agency,question_agency_4_Likert,10.0,5.0,8.0,8.0,10.0,-0.04072450852753062,0.4395900360981166,2
47,5,1,47,114,survey-likert,114,457011,3143.0,66.66666666666667,0.9,question_agency,question_agency_4_Likert,-23.33333333333333,8.0,9.0,5.0,6.0,-0.09210022445566073,0.2559224174184664,3
49,5,1,49,136,survey-likert,136,544529,2636.0,100.0,0.9,question_agency,question_agency_4_Likert,10.0,8.0,7.0,8.0,5.0,-0.5015586926990333,-0.05441549374833235,4
45,5,1,45,173,survey-likert,173,685115,1690.0,66.66666666666667,0.9,question_agency,question_agency_4_Likert,-23.33333333333333,9.0,9.0,7.0,6.0,0.553411682066422,-0.14230774335864793,5
52,5,1,52,25,survey-likert,25,117404,2631.0,100.0,1.0,question_agency,question_agency_4_Likert,0.0,6.0,6.0,7.0,12.0,0.6886190688716509,0.4199827760166478,1
53,5,1,53,65,survey-likert,65,269285,2124.0,100.0,1.0,question_agency,question_agency_4_Likert,0.0,9.0,7.0,7.0,10.0,-0.3148456018002443,-0.2864742299187287,2
54,5,1,54,108,survey-likert,108,433183,2096.0,100.0,1.0,question_agency,question_agency_4_Likert,0.0,7.0,8.0,5.0,9.0,0.23461216800578166,-0.12427389801734379,3
51,5,1,51,142,survey-likert,142,566945,2149.0,100.0,1.0,question_agency,question_agency_4_Likert,0.0,4.0,6.0,7.0,9.0,0.12310510462534908,-0.10991059524325884,4
50,5,1,50,167,survey-likert,167,662095,2290.0,100.0,1.0,question_agency,question_agency_4_Likert,0.0,5.0,6.0,7.0,6.0,-0.174644938770838,0.029985188460043624,5
1,6,1,1,34,survey-likert,34,123319,2357.0,0.0,0.0,question_agency,question_agency_4_Likert,0.0,5.0,7.0,32.0,34.0,0.5060329391580046,-0.3163347977693591,1
0,6,1,0,80,survey-likert,80,297852,2038.0,0.0,0.0,question_agency,question_agency_4_Likert,0.0,4.0,5.0,2.0,12.0,0.6573001722094152,0.5853897812698661,2
4,6,1,4,111,survey-likert,111,417502,2054.0,0.0,0.0,question_agency,question_agency_4_Likert,0.0,8.0,5.0,8.0,8.0,0.33928341929516853,0.2105438883174373,3
3,6,1,3,148,survey-likert,148,588286,2859.0,0.0,0.0,question_agency,question_agency_4_Likert,0.0,7.0,8.0,14.0,25.0,-0.0006168177731000488,0.059162022341534296,4
2,6,1,2,167,survey-likert,167,667936,2760.0,0.0,0.0,question_agency,question_agency_4_Likert,0.0,6.0,5.0,4.0,18.0,0.0016738878846083714,0.26393615161297246,5
8,6,1,8,49,survey-likert,49,179602,2943.0,33.333333333333336,0.1,question_agency,question_agency_4_Likert,23.333333333333336,8.0,5.0,7.0,10.0,0.5248920990448672,0.27478455556542203,1
7,6,1,7,62,survey-likert,62,228052,2493.0,33.333333333333336,0.1,question_agency,question_agency_4_Likert,23.333333333333336,5.0,6.0,4.0,5.0,0.2964751245290845,-0.11078805500114713,2
6,6,1,6,120,survey-likert,120,452685,2028.0,0.0,0.1,question_agency,question_agency_4_Likert,-10.0,7.0,5.0,7.0,16.0,-0.2908201086932952,-0.12946424333426057,3
9,6,1,9,145,survey-likert,145,576419,2376.0,0.0,0.1,question_agency,question_agency_4_Likert,-10.0,10.0,8.0,18.0,24.0,0.14458058325682777,0.12374754591683297,4
5,6,1,5,188,survey-likert,188,754687,2177.0,0.0,0.1,question_agency,question_agency_4_Likert,-10.0,6.0,5.0,20.0,41.0,-0.14000877383509958,-0.5825628393588372,5
12,6,1,12,52,survey-likert,52,191402,2792.0,0.0,0.2,question_agency,question_agency_4_Likert,-20.0,5.0,5.0,4.0,8.0,0.44129489680887496,-0.6798716625668627,1
11,6,1,11,68,survey-likert,68,250052,1712.0,33.333333333333336,0.2,question_agency,question_agency_4_Likert,13.333333333333336,6.0,6.0,4.0,17.0,-0.02750431770230543,-0.03510918852258631,2
10,6,1,10,114,survey-likert,114,428835,2328.0,0.0,0.2,question_agency,question_agency_4_Likert,-20.0,6.0,5.0,7.0,32.0,-0.410914328507084,-0.12305812853910288,3
13,6,1,13,151,survey-likert,151,600203,2912.0,33.333333333333336,0.2,question_agency,question_agency_4_Likert,13.333333333333336,7.0,8.0,9.0,7.0,-0.004469571300976914,0.03277704793101499,4
14,6,1,14,179,survey-likert,179,720503,5624.0,0.0,0.2,question_agency,question_agency_4_Likert,-20.0,3.0,8.0,9.0,7.0,-0.1191272813110637,0.19833325853384703,5
16,6,1,16,31,survey-likert,31,111953,2475.0,0.0,0.3,question_agency,question_agency_4_Likert,-30.0,9.0,8.0,6.0,4.0,-0.27388421901500215,0.06711510587710456,1
18,6,1,18,56,survey-likert,56,203702,1907.0,33.333333333333336,0.3,question_agency,question_agency_4_Likert,3.3333333333333357,6.0,6.0,6.0,4.0,-0.09203588344369518,-0.06536487219534341,2
19,6,1,19,93,survey-likert,93,351319,2453.0,33.333333333333336,0.3,question_agency,question_agency_4_Likert,3.3333333333333357,8.0,8.0,11.0,18.0,0.11366697183139177,0.11481955619407103,3
15,6,1,15,139,survey-likert,139,552919,1818.0,33.333333333333336,0.3,question_agency,question_agency_4_Likert,3.3333333333333357,5.0,5.0,14.0,19.0,-0.07201833806600809,-0.24700842273541002,4
17,6,1,17,176,survey-likert,176,705870,6629.0,33.333333333333336,0.3,question_agency,question_agency_4_Likert,3.3333333333333357,7.0,5.0,9.0,12.0,0.13370859574490898,0.07406762018740295,5
22,6,1,22,22,survey-likert,22,76337,3035.0,33.333333333333336,0.4,question_agency,question_agency_4_Likert,-6.666666666666664,6.0,6.0,8.0,12.0,0.2895191496494913,0.18288629061347297,1
24,6,1,24,77,survey-likert,77,286803,5342.0,0.0,0.4,question_agency,question_agency_4_Likert,-40.0,3.0,4.0,5.0,6.0,0.20516913516729948,-0.2618362261086795,2
23,6,1,23,105,survey-likert,105,395486,2260.0,0.0,0.4,question_agency,question_agency_4_Likert,-40.0,7.0,8.0,29.0,18.0,-0.36717993483100725,-0.23501752543454038,3
21,6,1,21,133,survey-likert,133,531119,1405.0,33.333333333333336,0.4,question_agency,question_agency_4_Likert,-6.666666666666664,7.0,5.0,7.0,17.0,0.12606777440428416,0.20836240229773015,4
20,6,1,20,161,survey-likert,161,645236,1875.0,33.333333333333336,0.4,question_agency,question_agency_4_Likert,-6.666666666666664,5.0,7.0,7.0,9.0,-0.11088503301061163,0.19676698157077727,5
26,6,1,26,25,survey-likert,25,88370,3014.0,33.333333333333336,0.5,question_agency,question_agency_4_Likert,-16.666666666666664,7.0,9.0,3.0,6.0,0.19191545400549218,-0.31090529983671705,1
29,6,1,29,71,survey-likert,71,260318,1256.0,33.333333333333336,0.5,question_agency,question_agency_4_Likert,-16.666666666666664,8.0,6.0,12.0,4.0,-0.09053710036973515,0.11383383208840069,2
27,6,1,27,90,survey-likert,90,339852,2586.0,33.333333333333336,0.5,question_agency,question_agency_4_Likert,-16.666666666666664,4.0,8.0,8.0,15.0,-0.04560660126514724,0.16774602553772286,3
28,6,1,28,130,survey-likert,130,520702,1542.0,33.333333333333336,0.5,question_agency,question_agency_4_Likert,-16.666666666666664,7.0,7.0,9.0,9.0,0.36476464124196095,0.11140594477532134,4
25,6,1,25,164,survey-likert,164,656169,1928.0,33.333333333333336,0.5,question_agency,question_agency_4_Likert,-16.666666666666664,7.0,6.0,12.0,5.0,0.09674443310158193,-0.540656937852646,5
31,6,1,31,28,survey-likert,28,100469,3091.0,33.333333333333336,0.6,question_agency,question_agency_4_Likert,-26.666666666666664,7.0,6.0,7.0,10.0,0.3341405348965384,-0.20084297062443562,1
32,6,1,32,59,survey-likert,59,216552,3842.0,33.333333333333336,0.6,question_agency,question_agency_4_Likert,-26.666666666666664,7.0,5.0,6.0,10.0,0.2424382793906843,-0.4144270306669397,2
30,6,1,30,102,survey-likert,102,384219,1209.0,33.333333333333336,0.6,question_agency,question_agency_4_Likert,-26.666666666666664,5.0,7.0,5.0,10.0,0.49872724958682835,0.03832575261949948,3
33,6,1,33,154,survey-likert,154,612236,3026.0,66.66666666666667,0.6,question_agency,question_agency_4_Likert,6.666666666666671,7.0,5.0,10.0,15.0,0.3641556858858946,0.23826080157508672,4
34,6,1,34,173,survey-likert,173,690237,2162.0,33.333333333333336,0.6,question_agency,question_agency_4_Likert,-26.666666666666664,6.0,5.0,4.0,9.0,-0.21742358260370964,-0.10330608129034627,5
35,6,1,35,43,survey-likert,43,155818,1824.0,33.333333333333336,0.7,question_agency,question_agency_4_Likert,-36.666666666666664,6.0,7.0,6.0,9.0,-0.6534160038698134,-0.25497560526967816,1
39,6,1,39,83,survey-likert,83,308352,1491.0,66.66666666666667,0.7,question_agency,question_agency_4_Likert,-3.3333333333333286,6.0,8.0,8.0,12.0,-0.2990172276796747,0.26480783677992187,2
38,6,1,38,117,survey-likert,117,441652,3803.0,66.66666666666667,0.7,question_agency,question_agency_4_Likert,-3.3333333333333286,6.0,7.0,6.0,10.0,0.5269141522126081,-0.2513345716560515,3
36,6,1,36,136,survey-likert,136,542086,1952.0,66.66666666666667,0.7,question_agency,question_agency_4_Likert,-3.3333333333333286,6.0,3.0,7.0,11.0,0.5218654847298005,-0.484274616288761,4
37,6,1,37,158,survey-likert,158,634353,2287.0,66.66666666666667,0.7,question_agency,question_agency_4_Likert,-3.3333333333333286,9.0,2.0,10.0,13.0,0.05963546522898315,-0.27804066073160383,5
40,6,1,40,37,survey-likert,37,134218,1892.0,66.66666666666667,0.8,question_agency,question_agency_4_Likert,-13.333333333333329,7.0,4.0,8.0,10.0,-0.5523826690468727,-0.291516946572165,1
43,6,1,43,74,survey-likert,74,272452,3126.0,66.66666666666667,0.8,question_agency,question_agency_4_Likert,-13.333333333333329,6.0,8.0,12.0,13.0,0.34826343856149805,-0.10774502197312329,2
41,6,1,41,99,survey-likert,99,374002,2208.0,66.66666666666667,0.8,question_agency,question_agency_4_Likert,-13.333333333333329,6.0,7.0,10.0,19.0,0.06526493745480264,0.3265175023035683,3
44,6,1,44,124,survey-likert,124,498619,2238.0,66.66666666666667,0.8,question_agency,question_agency_4_Likert,-13.333333333333329,8.0,7.0,11.0,16.0,-0.17617303819044092,0.02957532481734177,4
42,6,1,42,182,survey-likert,182,731436,1926.0,66.66666666666667,0.8,question_agency,question_agency_4_Likert,-13.333333333333329,7.0,8.0,8.0,7.0,0.12124608544567868,0.1298917140557398,5
49,6,1,49,40,survey-likert,40,144985,1760.0,66.66666666666667,0.9,question_agency,question_agency_4_Likert,-23.33333333333333,5.0,4.0,8.0,12.0,0.14506874240599738,-0.031787919241444744,1
45,6,1,45,86,survey-likert,86,320186,2828.0,66.66666666666667,0.9,question_agency,question_agency_4_Likert,-23.33333333333333,9.0,10.0,11.0,11.0,0.06026539227236203,0.0337431425019551,2
48,6,1,48,96,survey-likert,96,362785,2455.0,66.66666666666667,0.9,question_agency,question_agency_4_Likert,-23.33333333333333,8.0,8.0,6.0,9.0,-0.46422213047593525,0.23783339502733938,3
46,6,1,46,142,survey-likert,142,565036,3103.0,66.66666666666667,0.9,question_agency,question_agency_4_Likert,-23.33333333333333,7.0,10.0,7.0,10.0,0.21537997004983506,0.6324145059373507,4
47,6,1,47,185,survey-likert,185,743503,3057.0,66.66666666666667,0.9,question_agency,question_agency_4_Likert,-23.33333333333333,7.0,6.0,9.0,11.0,-0.5852268151663697,0.009583707548831238,5
50,6,1,50,46,survey-likert,46,167652,2824.0,100.0,1.0,question_agency,question_agency_4_Likert,0.0,10.0,10.0,18.0,30.0,-0.4984251727783936,0.04591703255371549,1
54,6,1,54,65,survey-likert,65,239335,2277.0,100.0,1.0,question_agency,question_agency_4_Likert,0.0,10.0,8.0,9.0,13.0,0.2616718166634204,0.3094583511646765,2
53,6,1,53,108,survey-likert,108,406435,1938.0,100.0,1.0,question_agency,question_agency_4_Likert,0.0,7.0,6.0,25.0,25.0,0.11842034886552696,-0.17939297448341823,3
52,6,1,52,127,survey-likert,127,510152,2529.0,100.0,1.0,question_agency,question_agency_4_Likert,0.0,7.0,7.0,10.0,14.0,-0.1589181076092054,-0.03130188725559575,4
51,6,1,51,170,survey-likert,170,679070,2126.0,100.0,1.0,question_agency,question_agency_4_Likert,0.0,7.0,9.0,11.0,13.0,-0.07386564805646652,0.249495922005074,5
0,7,1,0,22,survey-likert,22,95385,5349.0,0.0,0.0,question_agency,question_agency_4_Likert,0.0,8.0,5.0,15.0,6.0,-0.03439347184196185,-0.38577770138513723,1
4,7,1,4,59,survey-likert,59,240449,2882.0,0.0,0.0,question_agency,question_agency_4_Likert,0.0,7.0,4.0,16.0,8.0,-0.26153618064240647,0.09713836477060464,2
2,7,1,2,96,survey-likert,96,376462,2409.0,0.0,0.0,question_agency,question_agency_4_Likert,0.0,6.0,7.0,3.0,12.0,-0.44540152803659583,0.34746090941881885,3
3,7,1,3,136,survey-likert,136,523091,2147.0,0.0,0.0,question_agency,question_agency_4_Likert,0.0,8.0,7.0,8.0,3.0,-0.19811293349895134,-0.04707674479846409,4
1,7,1,1,158,survey-likert,158,605609,2830.0,0.0,0.0,question_agency,question_agency_4_Likert,0.0,7.0,7.0,11.0,4.0,0.6165589876401769,-0.3920997923105221,5
5,7,1,5,28,survey-likert,28,119693,3827.0,0.0,0.1,question_agency,question_agency_4_Likert,-10.0,4.0,5.0,14.0,7.0,-0.23142889897868107,-0.3077550078651235,1
8,7,1,8,86,survey-likert,86,341059,2221.0,33.333333333333336,0.1,question_agency,question_agency_4_Likert,23.333333333333336,6.0,8.0,7.0,9.0,0.5700404457542196,0.46134128207094804,2
9,7,1,9,102,survey-likert,102,399805,1710.0,0.0,0.1,question_agency,question_agency_4_Likert,-10.0,6.0,4.0,11.0,4.0,-0.05920228843325619,0.3202885849002372,3
7,7,1,7,154,survey-likert,154,592257,2813.0,0.0,0.1,question_agency,question_agency_4_Likert,-10.0,9.0,7.0,5.0,3.0,0.4538585442338238,0.14084311380960354,4
6,7,1,6,167,survey-likert,167,638604,1992.0,0.0,0.1,question_agency,question_agency_4_Likert,-10.0,9.0,9.0,14.0,9.0,0.01636175726493482,0.0078837565155168,5
13,7,1,13,40,survey-likert,40,168834,5670.0,33.333333333333336,0.2,question_agency,question_agency_4_Likert,13.333333333333336,5.0,2.0,10.0,10.0,-0.2638617731220834,-0.1033710717127649,1
11,7,1,11,74,survey-likert,74,297021,2785.0,0.0,0.2,question_agency,question_agency_4_Likert,-20.0,6.0,5.0,13.0,7.0,0.19375942067630386,0.28768012421022526,2
10,7,1,10,90,survey-likert,90,354000,2916.0,0.0,0.2,question_agency,question_agency_4_Likert,-20.0,5.0,7.0,9.0,4.0,-0.033671525692577774,-0.26676782882944183,3
12,7,1,12,130,survey-likert,130,500376,1776.0,33.333333333333336,0.2,question_agency,question_agency_4_Likert,13.333333333333336,9.0,6.0,9.0,3.0,0.030886454932357556,-0.022941090421815327,4
14,7,1,14,173,survey-likert,173,662398,3528.0,0.0,0.2,question_agency,question_agency_4_Likert,-20.0,9.0,7.0,17.0,7.0,0.14010013934828636,0.1626621353892473,5
18,7,1,18,46,survey-likert,46,192487,3284.0,0.0,0.3,question_agency,question_agency_4_Likert,-30.0,6.0,6.0,21.0,12.0,0.03563925786794014,-0.25357245461227634,1
19,7,1,19,62,survey-likert,62,252490,3032.0,33.333333333333336,0.3,question_agency,question_agency_4_Likert,3.3333333333333357,5.0,6.0,14.0,4.0,0.022860601176407015,0.34448647709557867,2
15,7,1,15,120,survey-likert,120,465591,2440.0,0.0,0.3,question_agency,question_agency_4_Likert,-30.0,11.0,6.0,11.0,3.0,-0.011301858125074771,-0.3195460186468422,3
16,7,1,16,133,survey-likert,133,511931,2543.0,0.0,0.3,question_agency,question_agency_4_Likert,-30.0,6.0,8.0,10.0,8.0,-0.1528272830059003,0.10842940083611229,4
17,7,1,17,188,survey-likert,188,720683,2826.0,0.0,0.3,question_agency,question_agency_4_Likert,-30.0,7.0,7.0,12.0,6.0,-0.11304111866071098,0.46005707560080833,5
24,7,1,24,52,survey-likert,52,214888,1913.0,33.333333333333336,0.4,question_agency,question_agency_4_Likert,-6.666666666666664,5.0,4.0,10.0,6.0,0.02470131005502626,0.3685859481311998,1
21,7,1,21,68,survey-likert,68,274208,1921.0,33.333333333333336,0.4,question_agency,question_agency_4_Likert,-6.666666666666664,9.0,5.0,6.0,5.0,0.23441750922199397,0.2771283719816823,2
23,7,1,23,99,survey-likert,99,389087,3618.0,0.0,0.4,question_agency,question_agency_4_Likert,-40.0,7.0,8.0,8.0,9.0,0.15230459120042297,-0.40104197473793746,3
22,7,1,22,145,survey-likert,145,556980,1619.0,33.333333333333336,0.4,question_agency,question_agency_4_Likert,-6.666666666666664,5.0,6.0,7.0,6.0,-0.20089815428832286,0.2694169070799001,4
20,7,1,20,176,survey-likert,176,675849,4437.0,33.333333333333336,0.4,question_agency,question_agency_4_Likert,-6.666666666666664,6.0,9.0,8.0,4.0,-0.0650530889054879,0.166877871343248,5
25,7,1,25,31,survey-likert,31,131234,2524.0,33.333333333333336,0.5,question_agency,question_agency_4_Likert,-16.666666666666664,9.0,7.0,11.0,6.0,-0.11484960582674208,0.2413995868915018,1
29,7,1,29,83,survey-likert,83,329827,2179.0,33.333333333333336,0.5,question_agency,question_agency_4_Likert,-16.666666666666664,9.0,7.0,9.0,4.0,-0.32471907008854706,0.45002470030627495,2
28,7,1,28,105,survey-likert,105,411174,2364.0,33.333333333333336,0.5,question_agency,question_agency_4_Likert,-16.666666666666664,6.0,8.0,5.0,10.0,0.04895527119695906,-0.08737212271611121,3
27,7,1,27,127,survey-likert,127,489583,2982.0,0.0,0.5,question_agency,question_agency_4_Likert,-50.0,9.0,7.0,4.0,4.0,-0.12338661258451708,0.2641880378364635,4
26,7,1,26,161,survey-likert,161,616143,1841.0,33.333333333333336,0.5,question_agency,question_agency_4_Likert,-16.666666666666664,9.0,6.0,11.0,3.0,0.1759765037044545,0.3198302497005227,5
32,7,1,32,37,survey-likert,37,154156,1989.0,33.333333333333336,0.6,question_agency,question_agency_4_Likert,-26.666666666666664,7.0,7.0,13.0,5.0,-0.10730989160490458,0.35448649431591667,1
31,7,1,31,65,survey-likert,65,263269,1762.0,33.333333333333336,0.6,question_agency,question_agency_4_Likert,-26.666666666666664,6.0,6.0,10.0,6.0,-0.32156214510567294,0.21637978646151038,2
34,7,1,34,108,survey-likert,108,421818,1632.0,33.333333333333336,0.6,question_agency,question_agency_4_Likert,-26.666666666666664,6.0,11.0,9.0,9.0,0.2122923387585654,0.0764779914779845,3
33,7,1,33,151,survey-likert,151,580436,2796.0,66.66666666666667,0.6,question_agency,question_agency_4_Likert,6.666666666666671,8.0,7.0,6.0,7.0,-0.22287789516605316,0.18149257730648724,4
30,7,1,30,164,survey-likert,164,627593,2434.0,33.333333333333336,0.6,question_agency,question_agency_4_Likert,-26.666666666666664,7.0,7.0,11.0,7.0,-0.32294813462950456,0.45682544433263383,5
39,7,1,39,49,survey-likert,49,203969,2477.0,66.66666666666667,0.7,question_agency,question_agency_4_Likert,-3.3333333333333286,6.0,4.0,12.0,6.0,-0.16820067492931687,-0.08901418843695709,1
37,7,1,37,80,survey-likert,80,318639,1847.0,66.66666666666667,0.7,question_agency,question_agency_4_Likert,-3.3333333333333286,7.0,7.0,9.0,7.0,0.06252548609028843,0.04194066119061211,2
35,7,1,35,111,survey-likert,111,432222,1426.0,66.66666666666667,0.7,question_agency,question_agency_4_Likert,-3.3333333333333286,6.0,7.0,8.0,4.0,0.12431281453284283,-0.08926731995872353,3
38,7,1,38,148,survey-likert,148,568631,2636.0,66.66666666666667,0.7,question_agency,question_agency_4_Likert,-3.3333333333333286,5.0,6.0,10.0,6.0,-0.2329338852036884,0.2517514859162962,4
36,7,1,36,182,survey-likert,182,697760,1611.0,66.66666666666667,0.7,question_agency,question_agency_4_Likert,-3.3333333333333286,5.0,5.0,12.0,7.0,0.17574728979012186,0.259067971320262,5
40,7,1,40,34,survey-likert,34,143155,2913.0,66.66666666666667,0.8,question_agency,question_agency_4_Likert,-13.333333333333329,6.0,6.0,12.0,8.0,0.07314753567672846,0.21232264263384162,1
44,7,1,44,77,survey-likert,77,307773,1737.0,66.66666666666667,0.8,question_agency,question_agency_4_Likert,-13.333333333333329,7.0,9.0,10.0,8.0,-0.12109302231977566,0.43743644035184787,2
43,7,1,43,117,survey-likert,117,454144,1571.0,66.66666666666667,0.8,question_agency,question_agency_4_Likert,-13.333333333333329,8.0,6.0,6.0,7.0,0.11951328488729791,0.009566156509179673,3
41,7,1,41,124,survey-likert,124,477591,1586.0,0.0,0.8,question_agency,question_agency_4_Likert,0.0,7.0,5.0,8.0,6.0,0.45291633902375833,-0.019190591807050756,4
42,7,1,42,185,survey-likert,185,708837,2065.0,66.66666666666667,0.8,question_agency,question_agency_4_Likert,-13.333333333333329,5.0,5.0,8.0,8.0,0.23289990965180532,-0.01803797895753008,5
48,7,1,48,25,survey-likert,25,106849,2456.0,66.66666666666667,0.9,question_agency,question_agency_4_Likert,-23.33333333333333,9.0,9.0,10.0,8.0,0.17816895355474127,-0.1217814943884119,1
46,7,1,46,56,survey-likert,56,228540,1856.0,66.66666666666667,0.9,question_agency,question_agency_4_Likert,-23.33333333333333,7.0,10.0,6.0,8.0,-0.1837775263990975,0.2120522723134953,2
45,7,1,45,93,survey-likert,93,365041,2032.0,66.66666666666667,0.9,question_agency,question_agency_4_Likert,-23.33333333333333,7.0,5.0,8.0,6.0,0.5395017157526422,-0.3393099849005952,3
49,7,1,49,139,survey-likert,139,534060,1957.0,66.66666666666667,0.9,question_agency,question_agency_4_Likert,-23.33333333333333,7.0,5.0,11.0,12.0,-0.09708983051380589,-0.10039798491301373,4
47,7,1,47,170,survey-likert,170,649857,2232.0,66.66666666666667,0.9,question_agency,question_agency_4_Likert,-23.33333333333333,9.0,7.0,8.0,10.0,0.026181047519870687,-0.36496493988164486,5
51,7,1,51,43,survey-likert,43,180185,2329.0,100.0,1.0,question_agency,question_agency_4_Likert,0.0,5.0,6.0,12.0,12.0,0.24055398737477998,0.037831091077298235,1
52,7,1,52,71,survey-likert,71,285224,2011.0,100.0,1.0,question_agency,question_agency_4_Likert,0.0,7.0,5.0,12.0,5.0,0.5925195277307616,-0.07923646848728816,2
54,7,1,54,114,survey-likert,114,443566,2332.0,100.0,1.0,question_agency,question_agency_4_Likert,0.0,4.0,5.0,10.0,6.0,0.15435791855923015,0.15796734411981747,3
50,7,1,50,142,survey-likert,142,546342,3276.0,100.0,1.0,question_agency,question_agency_4_Likert,0.0,9.0,9.0,11.0,8.0,-0.1366828450745185,-0.42845741211464305,4
53,7,1,53,179,survey-likert,179,687123,2259.0,100.0,1.0,question_agency,question_agency_4_Likert,0.0,7.0,10.0,10.0,8.0,-0.14052506846845136,-0.2132567790013318,5
2,8,1,2,37,survey-likert,37,189979,3238.0,0.0,0.0,question_agency,question_agency_4_Likert,0.0,8.0,6.0,48.0,29.0,-0.09172872358266729,-0.05693667324847356,1
4,8,1,4,62,survey-likert,62,287752,2296.0,0.0,0.0,question_agency,question_agency_4_Likert,0.0,6.0,5.0,8.0,26.0,0.05467032745473112,0.06342398932122228,2
3,8,1,3,111,survey-likert,111,474219,3297.0,0.0,0.0,question_agency,question_agency_4_Likert,0.0,6.0,8.0,14.0,24.0,-0.01349559697571008,0.24257042909736692,3
1,8,1,1,151,survey-likert,151,630889,3771.0,0.0,0.0,question_agency,question_agency_4_Likert,0.0,6.0,7.0,27.0,8.0,-0.06669971687122675,-0.11253394074545142,4
0,8,1,0,167,survey-likert,167,690614,2082.0,0.0,0.0,question_agency,question_agency_4_Likert,0.0,8.0,7.0,69.0,8.0,0.10582084239230942,0.009352801825801059,5
6,8,1,6,34,survey-likert,34,177734,3232.0,0.0,0.1,question_agency,question_agency_4_Likert,-10.0,7.0,4.0,27.0,22.0,-0.032297697122930805,-0.04491535017911142,1
7,8,1,7,65,survey-likert,65,300003,3236.0,33.333333333333336,0.1,question_agency,question_agency_4_Likert,23.333333333333336,6.0,8.0,18.0,43.0,0.1691778778058459,-0.03682461658476153,2
9,8,1,9,96,survey-likert,96,416037,2063.0,0.0,0.1,question_agency,question_agency_4_Likert,-10.0,8.0,8.0,35.0,40.0,0.02012221626919929,0.03392152607571512,3
8,8,1,8,145,survey-likert,145,604046,2229.0,0.0,0.1,question_agency,question_agency_4_Likert,-10.0,7.0,6.0,2.0,58.0,0.19085299378994416,0.11815734141570636,4
5,8,1,5,179,survey-likert,179,736494,1768.0,0.0,0.1,question_agency,question_agency_4_Likert,-10.0,5.0,6.0,16.0,46.0,-0.25911937177890854,-0.19362003330142644,5
13,8,1,13,49,survey-likert,49,238130,2909.0,33.333333333333336,0.2,question_agency,question_agency_4_Likert,13.333333333333336,9.0,9.0,34.0,9.0,-0.0655054162451576,-0.17313710302896546,1
12,8,1,12,86,survey-likert,86,381820,2531.0,0.0,0.2,question_agency,question_agency_4_Likert,-20.0,5.0,4.0,67.0,0.0,-0.028282253557450326,0.0,2
14,8,1,14,120,survey-likert,120,508538,3090.0,0.0,0.2,question_agency,question_agency_4_Likert,-20.0,9.0,10.0,42.0,28.0,0.12869193254842723,-0.12156823865967362,3
10,8,1,10,142,survey-likert,142,592809,3593.0,0.0,0.2,question_agency,question_agency_4_Likert,-20.0,5.0,7.0,28.0,28.0,-0.09851991804685674,-0.18370203656538842,4
11,8,1,11,158,survey-likert,158,655157,2693.0,0.0,0.2,question_agency,question_agency_4_Likert,-20.0,7.0,7.0,16.0,18.0,0.35892634150056896,-0.15087503820016918,5
15,8,1,15,46,survey-likert,46,226215,3734.0,33.333333333333336,0.3,question_agency,question_agency_4_Likert,3.3333333333333357,7.0,8.0,5.0,6.0,0.02790365974744389,0.08875135771627751,1
18,8,1,18,59,survey-likert,59,276446,2740.0,33.333333333333336,0.3,question_agency,question_agency_4_Likert,3.3333333333333357,5.0,7.0,50.0,12.0,-0.02260493175200973,-0.14606876270209443,2
19,8,1,19,105,survey-likert,105,449549,2136.0,66.66666666666667,0.3,question_agency,question_agency_4_Likert,36.66666666666667,9.0,8.0,33.0,14.0,0.26279460164737617,-0.050609104773793254,3
17,8,1,17,127,survey-likert,127,532171,2739.0,33.333333333333336,0.3,question_agency,question_agency_4_Likert,3.3333333333333357,4.0,7.0,25.0,18.0,-0.17520899032469772,0.2698062937372383,4
16,8,1,16,173,survey-likert,173,714686,2175.0,0.0,0.3,question_agency,question_agency_4_Likert,-30.0,8.0,5.0,9.0,27.0,0.15368242452070663,0.011421521405997235,5
24,8,1,24,40,survey-likert,40,201744,2757.0,33.333333333333336,0.4,question_agency,question_agency_4_Likert,-6.666666666666664,11.0,6.0,10.0,9.0,0.3090644917334666,0.16373279266868399,1
22,8,1,22,68,survey-likert,68,311469,2459.0,0.0,0.4,question_agency,question_agency_4_Likert,-40.0,8.0,9.0,11.0,8.0,-0.10937031480595696,0.6707132598486552,2
21,8,1,21,90,survey-likert,90,394141,2340.0,33.333333333333336,0.4,question_agency,question_agency_4_Likert,-6.666666666666664,9.0,7.0,16.0,53.0,-0.003326147511849839,0.0415014693165065,3
20,8,1,20,136,survey-likert,136,567995,4818.0,33.333333333333336,0.4,question_agency,question_agency_4_Likert,-6.666666666666664,9.0,8.0,39.0,8.0,0.05054277909063808,0.062059136873729555,4
23,8,1,23,161,survey-likert,161,667039,2871.0,33.333333333333336,0.4,question_agency,question_agency_4_Likert,-6.666666666666664,7.0,7.0,52.0,2.0,-0.20599491848207982,-0.2755700179477059,5
28,8,1,28,28,survey-likert,28,153418,3178.0,33.333333333333336,0.5,question_agency,question_agency_4_Likert,-16.666666666666664,6.0,8.0,17.0,6.0,-0.16422831566599966,0.07088312335443524,1
25,8,1,25,77,survey-likert,77,349158,3079.0,66.66666666666667,0.5,question_agency,question_agency_4_Likert,16.66666666666667,6.0,6.0,2.0,16.0,-0.31697900907580956,-0.16810742608089127,2
29,8,1,29,114,survey-likert,114,485267,2033.0,33.333333333333336,0.5,question_agency,question_agency_4_Likert,-16.666666666666664,7.0,6.0,10.0,4.0,-0.3328785957567516,0.20563181698214827,3
26,8,1,26,139,survey-likert,139,580209,3204.0,33.333333333333336,0.5,question_agency,question_agency_4_Likert,-16.666666666666664,6.0,5.0,21.0,8.0,-0.019663591729503334,0.18538515909089553,4
27,8,1,27,176,survey-likert,176,725715,2018.0,33.333333333333336,0.5,question_agency,question_agency_4_Likert,-16.666666666666664,5.0,6.0,17.0,10.0,0.10426274223624017,-0.14241442697735368,5
34,8,1,34,52,survey-likert,52,250095,2954.0,66.66666666666667,0.6,question_agency,question_agency_4_Likert,6.666666666666671,6.0,5.0,11.0,6.0,0.20613950608094334,0.273675050439794,1
33,8,1,33,71,survey-likert,71,323510,3034.0,66.66666666666667,0.6,question_agency,question_agency_4_Likert,6.666666666666671,7.0,6.0,10.0,5.0,0.019951372002483737,0.2380136076572368,2
32,8,1,32,99,survey-likert,99,427044,2001.0,66.66666666666667,0.6,question_agency,question_agency_4_Likert,6.666666666666671,8.0,6.0,53.0,31.0,0.0018368673629567567,0.23253881041984925,3
30,8,1,30,148,survey-likert,148,618109,5057.0,33.333333333333336,0.6,question_agency,question_agency_4_Likert,-26.666666666666664,8.0,3.0,14.0,5.0,0.4234859092127892,-0.6716106673476862,4
31,8,1,31,188,survey-likert,188,769650,1581.0,66.66666666666667,0.6,question_agency,question_agency_4_Likert,6.666666666666671,8.0,8.0,44.0,28.0,0.04319140906901337,-0.048477585237665675,5
35,8,1,35,22,survey-likert,22,128863,4332.0,66.66666666666667,0.7,question_agency,question_agency_4_Likert,-3.3333333333333286,9.0,6.0,9.0,6.0,-0.03787547941289221,-0.07171600715807247,1
37,8,1,37,80,survey-likert,80,359720,1556.0,66.66666666666667,0.7,question_agency,question_agency_4_Likert,-3.3333333333333286,5.0,6.0,13.0,14.0,0.010649014432860152,-0.11791526730106516,2
38,8,1,38,117,survey-likert,117,496436,2159.0,66.66666666666667,0.7,question_agency,question_agency_4_Likert,-3.3333333333333286,7.0,5.0,16.0,4.0,0.016660877812490312,0.008695954023812947,3
36,8,1,36,124,survey-likert,124,520425,1521.0,66.66666666666667,0.7,question_agency,question_agency_4_Likert,-3.3333333333333286,7.0,8.0,19.0,5.0,-0.18839301882269363,0.367316250636595,4
39,8,1,39,170,survey-likert,170,703502,3880.0,66.66666666666667,0.7,question_agency,question_agency_4_Likert,-3.3333333333333286,8.0,6.0,33.0,18.0,0.19771263686022328,0.04768326320753945,5
44,8,1,44,43,survey-likert,43,213473,2722.0,100.0,0.8,question_agency,question_agency_4_Likert,20.0,7.0,7.0,22.0,8.0,0.07003685044371857,0.2541762242856876,1
43,8,1,43,83,survey-likert,83,370274,1547.0,100.0,0.8,question_agency,question_agency_4_Likert,20.0,7.0,7.0,54.0,20.0,-0.2583270064336161,0.020126788272212544,2
42,8,1,42,102,survey-likert,102,438405,2349.0,100.0,0.8,question_agency,question_agency_4_Likert,20.0,4.0,6.0,12.0,18.0,0.01986120639509696,0.029591739869757907,3
41,8,1,41,130,survey-likert,130,543601,2415.0,66.66666666666667,0.8,question_agency,question_agency_4_Likert,-13.333333333333329,9.0,7.0,21.0,10.0,0.28007422017537753,0.12345050260677135,4
40,8,1,40,185,survey-likert,185,759059,1586.0,100.0,0.8,question_agency,question_agency_4_Likert,20.0,7.0,8.0,25.0,46.0,0.09045878828015215,0.012302496785250838,5
46,8,1,46,31,survey-likert,31,165489,3064.0,100.0,0.9,question_agency,question_agency_4_Likert,10.0,7.0,6.0,11.0,6.0,-0.14693055927348794,0.07247464546592673,1
48,8,1,48,74,survey-likert,74,337069,4545.0,100.0,0.9,question_agency,question_agency_4_Likert,10.0,6.0,7.0,26.0,24.0,0.24041651097178104,-0.13704511204989195,2
47,8,1,47,108,survey-likert,108,461914,3358.0,100.0,0.9,question_agency,question_agency_4_Likert,10.0,9.0,9.0,28.0,22.0,0.01549477310815695,0.03904635952796285,3
49,8,1,49,133,survey-likert,133,554165,1686.0,100.0,0.9,question_agency,question_agency_4_Likert,10.0,7.0,9.0,47.0,44.0,0.04501167331669402,-0.08768922227963506,4
45,8,1,45,182,survey-likert,182,748454,2954.0,100.0,0.9,question_agency,question_agency_4_Likert,10.0,7.0,7.0,38.0,28.0,0.05451205628489517,0.2767213929546227,5
52,8,1,52,25,survey-likert,25,141233,3363.0,100.0,1.0,question_agency,question_agency_4_Likert,0.0,7.0,8.0,10.0,9.0,0.046466360137752814,-0.03573870395230857,1
50,8,1,50,56,survey-likert,56,264699,3099.0,100.0,1.0,question_agency,question_agency_4_Likert,0.0,2.0,3.0,17.0,16.0,-0.27134980539890086,0.1979840909162398,2
51,8,1,51,93,survey-likert,93,404965,1816.0,100.0,1.0,question_agency,question_agency_4_Likert,0.0,6.0,6.0,35.0,34.0,-0.10231229642300252,-0.10526691282137368,3
54,8,1,54,154,survey-likert,154,642642,2737.0,100.0,1.0,question_agency,question_agency_4_Likert,0.0,7.0,6.0,11.0,6.0,0.20266730817669254,0.008507037653583432,4
53,8,1,53,164,survey-likert,164,679523,3465.0,100.0,1.0,question_agency,question_agency_4_Likert,0.0,6.0,8.0,39.0,36.0,-0.09318196296937983,0.043062056258767856,5
1,9,1,1,28,survey-likert,28,165965,2762.0,0.0,0.0,question_agency,question_agency_4_Likert,0.0,9.0,9.0,25.0,24.0,0.026470413445225993,-0.1382162402368153,1
4,9,1,4,83,survey-likert,83,379045,1227.0,0.0,0.0,question_agency,question_agency_4_Likert,0.0,6.0,8.0,29.0,26.0,-0.07007179700143157,-0.31111754838849653,2
0,9,1,0,90,survey-likert,90,402957,2856.0,0.0,0.0,question_agency,question_agency_4_Likert,0.0,6.0,6.0,24.0,21.0,0.11587197344746229,0.13786841073845835,3
3,9,1,3,139,survey-likert,139,585691,2422.0,0.0,0.0,question_agency,question_agency_4_Likert,0.0,7.0,7.0,13.0,7.0,0.16899722611964724,-0.19961159525404346,4
2,9,1,2,185,survey-likert,185,757895,2727.0,0.0,0.0,question_agency,question_agency_4_Likert,0.0,7.0,7.0,14.0,16.0,0.010886402633617696,0.16535752927939082,5
9,9,1,9,25,survey-likert,25,154181,2510.0,0.0,0.1,question_agency,question_agency_4_Likert,-10.0,9.0,8.0,17.0,18.0,-0.006542145567685918,0.17756248122792512,1
6,9,1,6,59,survey-likert,59,290992,3185.0,0.0,0.1,question_agency,question_agency_4_Likert,-10.0,8.0,6.0,13.0,12.0,0.24895068859644862,0.2404955638190165,2
5,9,1,5,102,survey-likert,102,448339,2120.0,0.0,0.1,question_agency,question_agency_4_Likert,-10.0,5.0,5.0,21.0,26.0,0.027335383038544096,0.05171324296972654,3
7,9,1,7,145,survey-likert,145,608690,2931.0,0.0,0.1,question_agency,question_agency_4_Likert,-10.0,7.0,6.0,8.0,26.0,0.42599806191282025,0.22985092791788184,4
8,9,1,8,188,survey-likert,188,768458,1555.0,33.333333333333336,0.1,question_agency,question_agency_4_Likert,23.333333333333336,7.0,6.0,13.0,2.0,0.17290284749629095,0.21596393729039667,5
14,9,1,14,31,survey-likert,31,177524,2539.0,33.333333333333336,0.2,question_agency,question_agency_4_Likert,13.333333333333336,8.0,4.0,12.0,10.0,-0.25789856384087756,0.17125393034441078,1
12,9,1,12,62,survey-likert,62,301974,1972.0,0.0,0.2,question_agency,question_agency_4_Likert,-20.0,7.0,7.0,14.0,5.0,0.29301897672029364,0.250501106931269,2
13,9,1,13,120,survey-likert,120,515227,2482.0,0.0,0.2,question_agency,question_agency_4_Likert,-20.0,5.0,5.0,9.0,8.0,-0.3551950599752073,0.2621820546425408,3
10,9,1,10,154,survey-likert,154,644724,1955.0,0.0,0.2,question_agency,question_agency_4_Likert,-20.0,6.0,4.0,10.0,20.0,0.4312601550850578,0.005449857379705103,4
11,9,1,11,176,survey-likert,176,723411,2280.0,0.0,0.2,question_agency,question_agency_4_Likert,-20.0,10.0,5.0,22.0,7.0,-0.1548525472135793,0.13792965622882414,5
19,9,1,19,52,survey-likert,52,265574,3822.0,33.333333333333336,0.3,question_agency,question_agency_4_Likert,3.3333333333333357,6.0,8.0,12.0,18.0,0.1303546932673593,-0.0806769499039584,1
17,9,1,17,77,survey-likert,77,357804,2202.0,0.0,0.3,question_agency,question_agency_4_Likert,-30.0,8.0,9.0,17.0,4.0,-0.1847012965709108,0.2735192918043872,2
16,9,1,16,108,survey-likert,108,470792,1457.0,33.333333333333336,0.3,question_agency,question_agency_4_Likert,3.3333333333333357,7.0,5.0,14.0,8.0,0.13230917700511102,-0.10077836646416859,3
18,9,1,18,151,survey-likert,151,633757,4138.0,0.0,0.3,question_agency,question_agency_4_Likert,-30.0,9.0,7.0,11.0,10.0,-0.14766909758020424,-0.3026824976961882,4
15,9,1,15,182,survey-likert,182,746151,2309.0,0.0,0.3,question_agency,question_agency_4_Likert,-30.0,8.0,9.0,6.0,13.0,0.0745111153769055,0.10989330353807934,5
24,9,1,24,49,survey-likert,49,252732,2476.0,0.0,0.4,question_agency,question_agency_4_Likert,-40.0,5.0,5.0,21.0,8.0,-0.11464982473166302,-0.11887755864216108,1
23,9,1,23,71,survey-likert,71,336116,2081.0,33.333333333333336,0.4,question_agency,question_agency_4_Likert,-6.666666666666664,8.0,5.0,12.0,7.0,-0.04423400702640608,0.002432756664267851,2
22,9,1,22,105,survey-likert,105,460329,2978.0,33.333333333333336,0.4,question_agency,question_agency_4_Likert,-6.666666666666664,5.0,6.0,13.0,8.0,-0.03163219474982291,0.3332772795196961,3
21,9,1,21,130,survey-likert,130,552845,3660.0,0.0,0.4,question_agency,question_agency_4_Likert,-40.0,7.0,6.0,24.0,22.0,-0.2641458867098387,-0.3900175412440021,4
20,9,1,20,179,survey-likert,179,734825,2406.0,0.0,0.4,question_agency,question_agency_4_Likert,-40.0,7.0,8.0,10.0,13.0,-0.22365756902008505,-0.021316387642156567,5
26,9,1,26,40,survey-likert,40,215856,3504.0,33.333333333333336,0.5,question_agency,question_agency_4_Likert,-16.666666666666664,6.0,7.0,9.0,11.0,-0.01445030262885212,-0.012071975162802916,1
25,9,1,25,56,survey-likert,56,278784,1894.0,66.66666666666667,0.5,question_agency,question_agency_4_Likert,16.66666666666667,3.0,6.0,8.0,10.0,0.3493358519025313,-0.28978710256412454,2
27,9,1,27,99,survey-likert,99,437211,2526.0,33.333333333333336,0.5,question_agency,question_agency_4_Likert,-16.666666666666664,5.0,7.0,7.0,11.0,0.00022235361519960779,-0.06491489895364703,3
29,9,1,29,124,survey-likert,124,527267,1692.0,33.333333333333336,0.5,question_agency,question_agency_4_Likert,-16.666666666666664,9.0,6.0,8.0,9.0,0.14312464300379943,-0.3635770089246381,4
28,9,1,28,164,survey-likert,164,678742,2157.0,33.333333333333336,0.5,question_agency,question_agency_4_Likert,-16.666666666666664,8.0,8.0,7.0,14.0,-0.025118077978005315,-0.03832161310942502,5
32,9,1,32,43,survey-likert,43,229651,4783.0,66.66666666666667,0.6,question_agency,question_agency_4_Likert,6.666666666666671,8.0,7.0,12.0,10.0,0.43975020769498213,0.1568216496246063,1
33,9,1,33,68,survey-likert,68,325023,2487.0,66.66666666666667,0.6,question_agency,question_agency_4_Likert,6.666666666666671,6.0,7.0,10.0,9.0,-0.08455637540499146,0.17193827613065565,2
31,9,1,31,111,survey-likert,111,481359,1557.0,66.66666666666667,0.6,question_agency,question_agency_4_Likert,6.666666666666671,8.0,6.0,10.0,11.0,-0.027212358986198844,-0.23532034843309968,3
34,9,1,34,142,survey-likert,142,596745,2044.0,33.333333333333336,0.6,question_agency,question_agency_4_Likert,-26.666666666666664,8.0,9.0,10.0,10.0,-0.08879737199774833,0.10978855675116848,4
30,9,1,30,161,survey-likert,161,667577,1614.0,33.333333333333336,0.6,question_agency,question_agency_4_Likert,-26.666666666666664,7.0,6.0,3.0,14.0,-0.46874420881880974,-0.21267159956626733,5
37,9,1,37,22,survey-likert,22,142653,3761.0,66.66666666666667,0.7,question_agency,question_agency_4_Likert,-3.3333333333333286,7.0,9.0,12.0,12.0,0.031152050864471235,0.04539148968659193,1
36,9,1,36,86,survey-likert,86,389556,1499.0,66.66666666666667,0.7,question_agency,question_agency_4_Likert,-3.3333333333333286,6.0,6.0,6.0,10.0,0.09012119398048811,0.3830194365592334,2
38,9,1,38,96,survey-likert,96,425667,1999.0,66.66666666666667,0.7,question_agency,question_agency_4_Likert,-3.3333333333333286,5.0,7.0,10.0,11.0,0.2766021108964558,-0.051915595268616145,3
39,9,1,39,136,survey-likert,136,574254,1819.0,66.66666666666667,0.7,question_agency,question_agency_4_Likert,-3.3333333333333286,8.0,8.0,12.0,8.0,0.3692110503319393,-0.34558851053103157,4
35,9,1,35,158,survey-likert,158,656946,2012.0,66.66666666666667,0.7,question_agency,question_agency_4_Likert,-3.3333333333333286,8.0,7.0,10.0,14.0,0.36350028399128903,-0.02507722821042388,5
43,9,1,43,34,survey-likert,34,189596,3060.0,100.0,0.8,question_agency,question_agency_4_Likert,20.0,8.0,7.0,9.0,10.0,-0.24053450605188337,0.02946549086209129,1
41,9,1,41,65,survey-likert,65,313518,2532.0,100.0,0.8,question_agency,question_agency_4_Likert,20.0,3.0,7.0,9.0,12.0,-0.4850696867970562,0.31509523857166005,2
40,9,1,40,93,survey-likert,93,414661,2693.0,66.66666666666667,0.8,question_agency,question_agency_4_Likert,-13.333333333333329,5.0,5.0,4.0,9.0,-0.33613081002656586,0.08462509321054822,3
42,9,1,42,127,survey-likert,127,540175,3890.0,66.66666666666667,0.8,question_agency,question_agency_4_Likert,-13.333333333333329,8.0,4.0,10.0,13.0,0.08130273860631744,0.06959736938068353,4
44,9,1,44,167,survey-likert,167,689557,1805.0,66.66666666666667,0.8,question_agency,question_agency_4_Likert,-13.333333333333329,7.0,6.0,13.0,17.0,-0.42790530386770254,-0.019601263736350547,5
45,9,1,45,37,survey-likert,37,203328,4723.0,100.0,0.9,question_agency,question_agency_4_Likert,10.0,8.0,5.0,12.0,11.0,0.5060752399022163,-0.0033847597654405384,1
47,9,1,47,80,survey-likert,80,368800,1982.0,100.0,0.9,question_agency,question_agency_4_Likert,10.0,7.0,8.0,11.0,12.0,-0.4009879304019949,0.1476066761155359,2
48,9,1,48,117,survey-likert,117,503734,2093.0,66.66666666666667,0.9,question_agency,question_agency_4_Likert,-23.33333333333333,4.0,4.0,7.0,12.0,-0.034863663869806064,0.12607468091579146,3
49,9,1,49,148,survey-likert,148,620609,2908.0,100.0,0.9,question_agency,question_agency_4_Likert,10.0,6.0,8.0,14.0,11.0,-0.23958616855154824,-0.056374981633436766,4
46,9,1,46,173,survey-likert,173,712100,1864.0,100.0,0.9,question_agency,question_agency_4_Likert,10.0,6.0,8.0,11.0,15.0,-0.3842863904182928,-0.37735713359724793,5
52,9,1,52,46,survey-likert,46,241244,2575.0,100.0,1.0,question_agency,question_agency_4_Likert,0.0,6.0,6.0,12.0,15.0,0.010015922004953529,-0.03636473222359556,1
53,9,1,53,74,survey-likert,74,346594,1459.0,100.0,1.0,question_agency,question_agency_4_Likert,0.0,10.0,9.0,14.0,14.0,0.03955029123151733,0.09494226070783507,2
51,9,1,51,114,survey-likert,114,492629,2261.0,100.0,1.0,question_agency,question_agency_4_Likert,0.0,8.0,9.0,15.0,14.0,0.2594795341382742,0.001099239510618643,3
54,9,1,54,133,survey-likert,133,563422,1562.0,100.0,1.0,question_agency,question_agency_4_Likert,0.0,4.0,9.0,13.0,14.0,-0.052734056545822874,0.41741654988934085,4
50,9,1,50,170,survey-likert,170,701228,2659.0,100.0,1.0,question_agency,question_agency_4_Likert,0.0,6.0,7.0,12.0,16.0,0.2600848879858788,-0.14464563872422947,5
2,10,1,2,40,survey-likert,40,256655,2254.0,0.0,0.0,question_agency,question_agency_4_Likert,0.0,7.0,7.0,43.0,34.0,-0.2853977495575994,-0.30600868796654573,1
3,10,1,3,59,survey-likert,59,328974,1660.0,0.0,0.0,question_agency,question_agency_4_Likert,0.0,3.0,7.0,36.0,30.0,-0.4784006743334673,0.02438688076934431,2
0,10,1,0,90,survey-likert,90,441292,1921.0,0.0,0.0,question_agency,question_agency_4_Likert,0.0,6.0,6.0,57.0,33.0,-0.41632038401020016,0.06380995993961526,3
1,10,1,1,133,survey-likert,133,601746,2027.0,0.0,0.0,question_agency,question_agency_4_Likert,0.0,7.0,9.0,49.0,25.0,0.003982459403459,-0.2776816134990511,4
4,10,1,4,158,survey-likert,158,692109,3538.0,0.0,0.0,question_agency,question_agency_4_Likert,0.0,6.0,6.0,60.0,61.0,0.05665918958685699,0.051440824037834836,5
7,10,1,7,37,survey-likert,37,245392,2625.0,0.0,0.1,question_agency,question_agency_4_Likert,-10.0,9.0,6.0,38.0,10.0,-0.19316685159183172,-0.37344746780688187,1
9,10,1,9,86,survey-likert,86,429171,2160.0,0.0,0.1,question_agency,question_agency_4_Likert,-10.0,8.0,4.0,25.0,12.0,-0.33796177813551725,-0.15089825792976297,2
5,10,1,5,102,survey-likert,102,486455,1961.0,0.0,0.1,question_agency,question_agency_4_Likert,-10.0,7.0,6.0,49.0,16.0,-0.08095684992328156,0.1789418175998593,3
6,10,1,6,124,survey-likert,124,567684,4177.0,0.0,0.1,question_agency,question_agency_4_Likert,-10.0,6.0,5.0,30.0,13.0,-0.06515465059820327,0.1186755236318098,4
8,10,1,8,161,survey-likert,161,704000,2879.0,0.0,0.1,question_agency,question_agency_4_Likert,-10.0,9.0,10.0,50.0,18.0,-0.20527057298492438,0.21652564944820243,5
12,10,1,12,34,survey-likert,34,233758,2441.0,0.0,0.2,question_agency,question_agency_4_Likert,-20.0,9.0,6.0,13.0,9.0,0.04251504885943705,-0.23007516546863419,1
10,10,1,10,77,survey-likert,77,395990,2058.0,0.0,0.2,question_agency,question_agency_4_Likert,-20.0,9.0,7.0,29.0,21.0,-0.1342054666443808,-0.40859454171754217,2
11,10,1,11,105,survey-likert,105,497345,1882.0,0.0,0.2,question_agency,question_agency_4_Likert,-20.0,7.0,10.0,21.0,20.0,-0.05349167146491617,-0.04520614938615059,3
14,10,1,14,136,survey-likert,136,612651,1894.0,0.0,0.2,question_agency,question_agency_4_Likert,-20.0,4.0,6.0,49.0,32.0,-0.46585105712830555,-0.0333813592780353,4
13,10,1,13,173,survey-likert,173,749151,2452.0,0.0,0.2,question_agency,question_agency_4_Likert,-20.0,7.0,8.0,62.0,56.0,0.2840647519556706,-0.039351777607561485,5
15,10,1,15,43,survey-likert,43,269537,3870.0,33.333333333333336,0.3,question_agency,question_agency_4_Likert,3.3333333333333357,3.0,4.0,10.0,16.0,-0.5490608879223101,-0.021455700401323552,1
18,10,1,18,80,survey-likert,80,406989,1991.0,0.0,0.3,question_agency,question_agency_4_Likert,-30.0,9.0,5.0,22.0,10.0,-0.005214282973839693,-0.09604698130138646,2
16,10,1,16,111,survey-likert,111,519300,1831.0,33.333333333333336,0.3,question_agency,question_agency_4_Likert,3.3333333333333357,9.0,9.0,25.0,24.0,0.2968295918730748,0.20252567846557745,3
19,10,1,19,139,survey-likert,139,623751,2086.0,0.0,0.3,question_agency,question_agency_4_Likert,-30.0,7.0,4.0,26.0,39.0,-0.367495798206593,0.022275223434556658,4
17,10,1,17,182,survey-likert,182,782953,2325.0,0.0,0.3,question_agency,question_agency_4_Likert,-30.0,8.0,9.0,37.0,41.0,0.13048875451530292,-0.22340178233971714,5
23,10,1,23,22,survey-likert,22,187092,4181.0,33.333333333333336,0.4,question_agency,question_agency_4_Likert,-6.666666666666664,5.0,7.0,15.0,14.0,-0.3727816564263994,0.37125992037385736,1
24,10,1,24,83,survey-likert,83,418003,2000.0,0.0,0.4,question_agency,question_agency_4_Likert,-40.0,7.0,8.0,20.0,10.0,-0.15114053281174722,-0.09087341995935123,2
22,10,1,22,93,survey-likert,93,453085,2772.0,33.333333333333336,0.4,question_agency,question_agency_4_Likert,-6.666666666666664,9.0,7.0,11.0,1.0,0.533130854088526,0.16508918515372786,3
20,10,1,20,127,survey-likert,127,579511,2820.0,0.0,0.4,question_agency,question_agency_4_Likert,-40.0,8.0,7.0,35.0,30.0,0.06556956507347524,0.06781508001219533,4
21,10,1,21,179,survey-likert,179,771616,1994.0,33.333333333333336,0.4,question_agency,question_agency_4_Likert,-6.666666666666664,6.0,7.0,20.0,14.0,-0.2080916114801621,0.19126565487837904,5
29,10,1,29,25,survey-likert,25,199126,3025.0,33.333333333333336,0.5,question_agency,question_agency_4_Likert,-16.666666666666664,7.0,7.0,11.0,12.0,0.2267332673340128,-0.1337083716496334,1
28,10,1,28,71,survey-likert,71,373485,2387.0,33.333333333333336,0.5,question_agency,question_agency_4_Likert,-16.666666666666664,9.0,8.0,14.0,10.0,0.2229817184226804,0.2744657707856204,2
26,10,1,26,99,survey-likert,99,475485,2442.0,33.333333333333336,0.5,question_agency,question_agency_4_Likert,-16.666666666666664,9.0,10.0,9.0,9.0,0.2919160526102488,-0.34370570536747486,3
27,10,1,27,154,survey-likert,154,678647,2375.0,33.333333333333336,0.5,question_agency,question_agency_4_Likert,-16.666666666666664,10.0,7.0,22.0,11.0,-0.12282072280673106,-0.2871042772208001,4
25,10,1,25,176,survey-likert,176,760610,2447.0,33.333333333333336,0.5,question_agency,question_agency_4_Likert,-16.666666666666664,10.0,9.0,15.0,17.0,-0.07916051771868876,-0.10517712976212577,5
32,10,1,32,49,survey-likert,49,292058,2241.0,66.66666666666667,0.6,question_agency,question_agency_4_Likert,6.666666666666671,9.0,8.0,11.0,11.0,0.3158609974845033,-0.11435374022594032,1
31,10,1,31,56,survey-likert,56,318302,2251.0,33.333333333333336,0.6,question_agency,question_agency_4_Likert,-26.666666666666664,8.0,8.0,11.0,7.0,-0.09981467445938459,-0.04155439109521912,2
34,10,1,34,120,survey-likert,120,553325,2347.0,33.333333333333336,0.6,question_agency,question_agency_4_Likert,-26.666666666666664,8.0,6.0,15.0,10.0,0.05078691623930352,0.04148579779151197,3
30,10,1,30,145,survey-likert,145,645119,1927.0,33.333333333333336,0.6,question_agency,question_agency_4_Likert,-26.666666666666664,4.0,6.0,11.0,11.0,-0.38408524553848855,-0.2865293681558087,4
33,10,1,33,164,survey-likert,164,715223,2210.0,33.333333333333336,0.6,question_agency,question_agency_4_Likert,-26.666666666666664,5.0,4.0,23.0,13.0,-0.3245217804981378,-0.23048947197123446,5
35,10,1,35,52,survey-likert,52,304379,3313.0,33.333333333333336,0.7,question_agency,question_agency_4_Likert,-36.666666666666664,7.0,8.0,13.0,10.0,-0.3599604091565685,0.15951663759131288,1
38,10,1,38,74,survey-likert,74,384921,2421.0,66.66666666666667,0.7,question_agency,question_agency_4_Likert,-3.3333333333333286,5.0,9.0,11.0,6.0,0.01983406187209701,0.07352841986499822,2
39,10,1,39,96,survey-likert,96,464025,1929.0,66.66666666666667,0.7,question_agency,question_agency_4_Likert,-3.3333333333333286,5.0,6.0,13.0,12.0,-0.09994129688448122,-0.2289671597525049,3
37,10,1,37,151,survey-likert,151,667260,2597.0,66.66666666666667,0.7,question_agency,question_agency_4_Likert,-3.3333333333333286,8.0,7.0,14.0,13.0,0.17548744456039433,-0.47230213498347334,4
36,10,1,36,170,survey-likert,170,737688,2397.0,66.66666666666667,0.7,question_agency,question_agency_4_Likert,-3.3333333333333286,4.0,7.0,10.0,11.0,-0.45943203584522607,-0.11169512770401527,5
41,10,1,41,28,survey-likert,28,211047,2912.0,66.66666666666667,0.8,question_agency,question_agency_4_Likert,-13.333333333333329,7.0,7.0,14.0,13.0,-0.037209388057321165,0.1240244060825346,1
44,10,1,44,68,survey-likert,68,362089,2132.0,33.333333333333336,0.8,question_agency,question_agency_4_Likert,-46.666666666666664,8.0,7.0,13.0,8.0,-0.3141010358737126,-0.2930416381850831,2
42,10,1,42,108,survey-likert,108,508451,2098.0,66.66666666666667,0.8,question_agency,question_agency_4_Likert,-13.333333333333329,4.0,6.0,14.0,12.0,0.6682109865973456,-0.022250597865494836,3
40,10,1,40,130,survey-likert,130,590710,2183.0,66.66666666666667,0.8,question_agency,question_agency_4_Likert,-13.333333333333329,5.0,6.0,17.0,23.0,0.009929536059458888,-0.29728505027750324,4
43,10,1,43,185,survey-likert,185,794139,2171.0,66.66666666666667,0.8,question_agency,question_agency_4_Likert,-13.333333333333329,8.0,9.0,9.0,15.0,0.010362153521916275,-0.15856436930538664,5
45,10,1,45,31,survey-likert,31,222309,2252.0,66.66666666666667,0.9,question_agency,question_agency_4_Likert,-23.33333333333333,7.0,9.0,11.0,15.0,-0.03026977105795878,-0.32663928953630933,1
47,10,1,47,65,survey-likert,65,350946,2274.0,66.66666666666667,0.9,question_agency,question_agency_4_Likert,-23.33333333333333,6.0,8.0,11.0,10.0,-0.25135007701719647,0.09010478544397534,2
48,10,1,48,114,survey-likert,114,530484,2173.0,66.66666666666667,0.9,question_agency,question_agency_4_Likert,-23.33333333333333,7.0,9.0,11.0,12.0,-0.5103355296512032,-0.21896349552198818,3
46,10,1,46,142,survey-likert,142,634185,1426.0,66.66666666666667,0.9,question_agency,question_agency_4_Likert,-23.33333333333333,8.0,8.0,11.0,10.0,-0.298406671191098,0.06305044610456557,4
49,10,1,49,188,survey-likert,188,805404,2257.0,66.66666666666667,0.9,question_agency,question_agency_4_Likert,-23.33333333333333,8.0,8.0,14.0,20.0,-0.07945056222702145,-0.11758018933734056,5
54,10,1,54,46,survey-likert,46,280809,2259.0,100.0,1.0,question_agency,question_agency_4_Likert,0.0,6.0,4.0,17.0,17.0,0.058430699558796824,0.010776093081691909,1
52,10,1,52,62,survey-likert,62,339655,1667.0,100.0,1.0,question_agency,question_agency_4_Likert,0.0,6.0,10.0,14.0,8.0,0.39022482403256686,0.1061794385566799,2
53,10,1,53,117,survey-likert,117,541968,2476.0,100.0,1.0,question_agency,question_agency_4_Likert,0.0,5.0,6.0,10.0,10.0,0.15855305759042523,-0.20108182879382752,3
51,10,1,51,148,survey-likert,148,655653,1523.0,100.0,1.0,question_agency,question_agency_4_Likert,0.0,9.0,9.0,7.0,10.0,-0.07308351854316841,-0.2663563404496671,4
50,10,1,50,167,survey-likert,167,726280,2047.0,100.0,1.0,question_agency,question_agency_4_Likert,0.0,7.0,7.0,14.0,16.0,0.17636022020961728,0.4023379305792466,5
0,11,1,0,22,survey-likert,22,139314,6264.0,0.0,0.0,question_agency,question_agency_4_Likert,0.0,5.0,8.0,9.0,8.0,-0.18681742674737417,0.37958334044602365,1
4,11,1,4,74,survey-likert,74,353526,2910.0,0.0,0.0,question_agency,question_agency_4_Likert,0.0,7.0,7.0,5.0,8.0,-0.0929098789776146,0.07539818879120976,2
3,11,1,3,111,survey-likert,111,497460,2675.0,33.333333333333336,0.0,question_agency,question_agency_4_Likert,33.333333333333336,8.0,7.0,5.0,4.0,0.3168728588733101,0.08982872076006646,3
2,11,1,2,139,survey-likert,139,606676,3432.0,0.0,0.0,question_agency,question_agency_4_Likert,0.0,5.0,9.0,4.0,6.0,-0.10789427834716928,0.04888415052817025,4
1,11,1,1,179,survey-likert,179,764785,3110.0,0.0,0.0,question_agency,question_agency_4_Likert,0.0,8.0,8.0,6.0,9.0,0.0014998783872917415,-0.15802642555293842,5
9,11,1,9,46,survey-likert,46,238775,2930.0,33.333333333333336,0.1,question_agency,question_agency_4_Likert,23.333333333333336,5.0,5.0,9.0,6.0,0.1493762399101582,0.46983746218238925,1
7,11,1,7,62,survey-likert,62,305288,4741.0,33.333333333333336,0.1,question_agency,question_agency_4_Likert,23.333333333333336,8.0,8.0,1.0,8.0,0.3810497426896895,0.05026320430852833,2
6,11,1,6,102,survey-likert,102,462411,3020.0,0.0,0.1,question_agency,question_agency_4_Likert,-10.0,7.0,6.0,4.0,4.0,-0.2514413807546599,0.301126959598743,3
5,11,1,5,151,survey-likert,151,654241,2266.0,0.0,0.1,question_agency,question_agency_4_Likert,-10.0,11.0,6.0,2.0,6.0,0.38829743210523654,-0.36634845287135775,4
8,11,1,8,188,survey-likert,188,805229,3097.0,0.0,0.1,question_agency,question_agency_4_Likert,-10.0,9.0,9.0,5.0,2.0,0.14301769829203004,0.09674818562472771,5
13,11,1,13,28,survey-likert,28,165283,3172.0,33.333333333333336,0.2,question_agency,question_agency_4_Likert,13.333333333333336,5.0,6.0,4.0,5.0,-0.022981502642673998,0.060753696023669576,1
12,11,1,12,80,survey-likert,80,377692,2875.0,33.333333333333336,0.2,question_agency,question_agency_4_Likert,13.333333333333336,9.0,7.0,5.0,4.0,0.17148361581063853,0.5363763503348377,2
10,11,1,10,117,survey-likert,117,521447,3215.0,33.333333333333336,0.2,question_agency,question_agency_4_Likert,13.333333333333336,9.0,9.0,4.0,2.0,-0.11643507138318533,0.1517971837947549,3
11,11,1,11,127,survey-likert,127,558269,2296.0,0.0,0.2,question_agency,question_agency_4_Likert,-20.0,4.0,5.0,5.0,4.0,-0.43628259818555587,-0.35607164661175617,4
14,11,1,14,185,survey-likert,185,790970,3563.0,33.333333333333336,0.2,question_agency,question_agency_4_Likert,13.333333333333336,10.0,7.0,3.0,3.0,0.5745811081446792,0.14052059791661176,5
16,11,1,16,31,survey-likert,31,177868,3570.0,0.0,0.3,question_agency,question_agency_4_Likert,-30.0,4.0,3.0,6.0,6.0,-0.48967058452536866,-0.17076350583058703,1
17,11,1,17,86,survey-likert,86,401442,2958.0,33.333333333333336,0.3,question_agency,question_agency_4_Likert,3.3333333333333357,7.0,9.0,5.0,4.0,0.12163473265482298,0.19064067713506672,2
18,11,1,18,120,survey-likert,120,533629,2998.0,0.0,0.3,question_agency,question_agency_4_Likert,-30.0,9.0,7.0,5.0,5.0,-0.2794067959493836,-0.021547083184123073,3
19,11,1,19,154,survey-likert,154,666250,2547.0,33.333333333333336,0.3,question_agency,question_agency_4_Likert,3.3333333333333357,5.0,4.0,5.0,4.0,-0.202803992946213,0.11226289840156771,4
15,11,1,15,164,survey-likert,164,702426,3040.0,0.0,0.3,question_agency,question_agency_4_Likert,-30.0,4.0,6.0,5.0,6.0,-0.03424556946482898,-0.1397175367168061,5
22,11,1,22,25,survey-likert,25,153100,4772.0,33.333333333333336,0.4,question_agency,question_agency_4_Likert,-6.666666666666664,7.0,6.0,7.0,8.0,0.15380812720175202,0.38360942005215715,1
