,SubNum,Include,level_0,index,trial_type,trial_index,time_elapsed,rt,response,control_level,task_id,screen_id,difference,Key_Release_sim_x,Key_Release_sim_y,Key_Release_p1_x,Key_Release_p1_y,Correlation_x,Correlation_y,block
3,1,1,3,37,html-slider-response,37,151727,2148.0,0.0,0.0,question_agency,question_agency_line_100,0.0,8.0,8.0,9.0,10.0,0.2532068810590805,0.29482768347385585,1
4,1,1,4,62,html-slider-response,62,914915,4088.0,0.0,0.0,question_agency,question_agency_line_100,0.0,9.0,7.0,0.0,0.0,0.0,0.0,2
1,1,1,1,93,html-slider-response,93,1038241,2419.0,0.0,0.0,question_agency,question_agency_line_100,0.0,7.0,9.0,7.0,14.0,0.3060636581394854,-0.17189058598611193,3
2,1,1,2,139,html-slider-response,139,1210049,4303.0,0.0,0.0,question_agency,question_agency_line_100,0.0,5.0,6.0,14.0,30.0,-0.192599368906672,-0.3837335901474654,4
0,1,1,0,185,html-slider-response,185,1403841,3084.0,0.0,0.0,question_agency,question_agency_line_100,0.0,6.0,6.0,8.0,28.0,-0.2538331669355168,0.24915617448547628,5
5,1,1,5,22,html-slider-response,22,93183,3784.0,0.0,0.1,question_agency,question_agency_line_100,-10.0,5.0,6.0,10.0,7.0,-0.4438917663137649,-0.16269355729529728,1
7,1,1,7,71,html-slider-response,71,953753,2644.0,0.0,0.1,question_agency,question_agency_line_100,-10.0,3.0,2.0,0.0,0.0,0.0,0.0,2
6,1,1,6,117,html-slider-response,117,1128985,2032.0,0.0,0.1,question_agency,question_agency_line_100,-10.0,6.0,7.0,8.0,12.0,-0.23046229085964517,-0.12075610047773686,3
8,1,1,8,148,html-slider-response,148,1245378,2216.0,1.0,0.1,question_agency,question_agency_line_100,-9.0,8.0,6.0,7.0,11.0,0.2928070361625186,-0.1435731707906049,4
9,1,1,9,182,html-slider-response,182,1391745,2205.0,9.0,0.1,question_agency,question_agency_line_100,-1.0,6.0,6.0,12.0,2.0,-0.3577270919442126,-0.21910812273622374,5
12,1,1,12,46,html-slider-response,46,846522,3578.0,0.0,0.2,question_agency,question_agency_line_100,-20.0,4.0,8.0,0.0,0.0,0.0,0.0,1
10,1,1,10,59,html-slider-response,59,901803,3412.0,0.0,0.2,question_agency,question_agency_line_100,-20.0,5.0,4.0,0.0,0.0,0.0,0.0,2
14,1,1,14,99,html-slider-response,99,1061553,2368.0,11.0,0.2,question_agency,question_agency_line_100,-9.0,5.0,5.0,10.0,9.0,0.10858177977020755,0.03543899993397614,3
13,1,1,13,124,html-slider-response,124,1152385,1904.0,3.0,0.2,question_agency,question_agency_line_100,-17.0,6.0,7.0,8.0,4.0,0.20410539768790192,0.06738785066195442,4
11,1,1,11,161,html-slider-response,161,1307848,2457.0,11.0,0.2,question_agency,question_agency_line_100,-9.0,6.0,7.0,5.0,6.0,-0.35946889378118074,0.15755524709941618,5
15,1,1,15,49,html-slider-response,49,858298,2755.0,0.0,0.3,question_agency,question_agency_line_100,-30.0,5.0,5.0,0.0,0.0,0.0,0.0,1
18,1,1,18,83,html-slider-response,83,1002377,1905.0,40.0,0.3,question_agency,question_agency_line_100,10.0,7.0,8.0,11.0,5.0,-0.0033703698714326142,0.4380358285717492,2
19,1,1,19,90,html-slider-response,90,1026801,2430.0,30.0,0.3,question_agency,question_agency_line_100,0.0,6.0,4.0,4.0,9.0,-0.0015317531442979504,-0.5079458818590654,3
16,1,1,16,142,html-slider-response,142,1222921,3842.0,20.0,0.3,question_agency,question_agency_line_100,-10.0,4.0,5.0,7.0,6.0,0.009195877320401214,0.4676982897265238,4
17,1,1,17,179,html-slider-response,179,1380537,2780.0,8.0,0.3,question_agency,question_agency_line_100,-22.0,4.0,5.0,4.0,14.0,-0.4671816192517205,-0.27298264233352154,5
24,1,1,24,31,html-slider-response,31,129295,2232.0,3.0,0.4,question_agency,question_agency_line_100,-37.0,9.0,8.0,8.0,10.0,-0.039300224240516,0.1101766603393626,1
20,1,1,20,56,html-slider-response,56,889322,5916.0,0.0,0.4,question_agency,question_agency_line_100,-40.0,5.0,3.0,0.0,0.0,0.0,0.0,2
22,1,1,22,111,html-slider-response,111,1106337,1851.0,10.0,0.4,question_agency,question_agency_line_100,-30.0,7.0,5.0,2.0,9.0,0.045131767190525106,-0.1385873981328304,3
21,1,1,21,151,html-slider-response,151,1271864,17469.0,4.0,0.4,question_agency,question_agency_line_100,-36.0,8.0,5.0,0.0,2.0,0.0,0.2821753192243623,4
23,1,1,23,167,html-slider-response,167,1334802,2341.0,27.0,0.4,question_agency,question_agency_line_100,-13.0,5.0,7.0,6.0,13.0,-0.2515213559800877,-0.0793242544773234,5
27,1,1,27,52,html-slider-response,52,871922,4515.0,0.0,0.5,question_agency,question_agency_line_100,-50.0,3.0,3.0,0.0,0.0,0.0,0.0,1
26,1,1,26,77,html-slider-response,77,978505,2401.0,0.0,0.5,question_agency,question_agency_line_100,-50.0,8.0,8.0,0.0,0.0,0.0,0.0,2
29,1,1,29,114,html-slider-response,114,1117945,2579.0,11.0,0.5,question_agency,question_agency_line_100,-39.0,5.0,5.0,3.0,4.0,-0.022707111904986595,-0.24129568272820162,3
28,1,1,28,130,html-slider-response,130,1174873,1673.0,40.0,0.5,question_agency,question_agency_line_100,-10.0,9.0,9.0,6.0,13.0,-0.09527475828412867,0.16567609623153648,4
25,1,1,25,173,html-slider-response,173,1357626,1668.0,50.0,0.5,question_agency,question_agency_line_100,0.0,9.0,9.0,14.0,11.0,-0.053861984055548366,0.12162422098927042,5
33,1,1,33,34,html-slider-response,34,140559,2229.0,50.0,0.6,question_agency,question_agency_line_100,-10.0,8.0,8.0,12.0,24.0,0.09210622375604753,-0.13521246093985995,1
34,1,1,34,68,html-slider-response,68,942051,6659.0,0.0,0.6,question_agency,question_agency_line_100,-60.0,4.0,3.0,0.0,0.0,0.0,0.0,2
32,1,1,32,96,html-slider-response,96,1050153,2899.0,20.0,0.6,question_agency,question_agency_line_100,-40.0,9.0,6.0,13.0,12.0,-0.05614144365845951,-0.3757294296354268,3
30,1,1,30,136,html-slider-response,136,1196737,1974.0,85.0,0.6,question_agency,question_agency_line_100,25.0,5.0,7.0,8.0,15.0,0.044449230830228226,-0.11684267808650162,4
31,1,1,31,188,html-slider-response,188,1416801,3929.0,61.0,0.6,question_agency,question_agency_line_100,1.0,8.0,10.0,15.0,20.0,0.1263231994993754,-0.10595361354667295,5
38,1,1,38,40,html-slider-response,40,164495,3748.0,70.0,0.7,question_agency,question_agency_line_100,0.0,5.0,8.0,12.0,14.0,-0.2698891744242464,-0.3104311222391041,1
37,1,1,37,74,html-slider-response,74,967081,3668.0,0.0,0.7,question_agency,question_agency_line_100,-70.0,2.0,3.0,0.0,0.0,0.0,0.0,2
35,1,1,35,102,html-slider-response,102,1072985,2401.0,77.0,0.7,question_agency,question_agency_line_100,7.0,5.0,7.0,12.0,18.0,-0.2281235522261951,-0.014946652502633665,3
36,1,1,36,133,html-slider-response,133,1185745,1858.0,80.0,0.7,question_agency,question_agency_line_100,10.0,8.0,10.0,10.0,19.0,0.13428198588897758,0.21036886382186623,4
39,1,1,39,158,html-slider-response,158,1296368,2208.0,84.0,0.7,question_agency,question_agency_line_100,14.0,7.0,7.0,16.0,18.0,-0.26380797985333476,-0.2926263684235693,5
41,1,1,41,25,html-slider-response,25,105831,3624.0,68.0,0.8,question_agency,question_agency_line_100,-12.0,7.0,8.0,12.0,22.0,-0.06219852670134622,-0.07951887935298343,1
44,1,1,44,80,html-slider-response,80,991465,3943.0,0.0,0.8,question_agency,question_agency_line_100,-80.0,7.0,5.0,0.0,0.0,0.0,0.0,2
40,1,1,40,120,html-slider-response,120,1140481,2466.0,80.0,0.8,question_agency,question_agency_line_100,0.0,5.0,8.0,6.0,16.0,-0.4121970272024881,-0.23657935388338533,3
43,1,1,43,154,html-slider-response,154,1283152,2260.0,80.0,0.8,question_agency,question_agency_line_100,0.0,9.0,8.0,12.0,16.0,0.28513614899035505,-0.024222097015167296,4
42,1,1,42,170,html-slider-response,170,1346930,3119.0,78.0,0.8,question_agency,question_agency_line_100,-2.0,9.0,9.0,21.0,22.0,-0.047482479187609096,0.09256868458866863,5
47,1,1,47,28,html-slider-response,28,118031,3167.0,88.0,0.9,question_agency,question_agency_line_100,-2.0,8.0,9.0,8.0,12.0,-0.2790193858866543,-0.03202554763865844,1
45,1,1,45,86,html-slider-response,86,1013841,2437.0,90.0,0.9,question_agency,question_agency_line_100,0.0,7.0,9.0,11.0,8.0,0.21826986941774995,0.021352737603211745,2
49,1,1,49,105,html-slider-response,105,1084633,2630.0,90.0,0.9,question_agency,question_agency_line_100,0.0,7.0,8.0,6.0,16.0,0.08836118890749368,0.23423445839417043,3
48,1,1,48,127,html-slider-response,127,1164185,2783.0,91.0,0.9,question_agency,question_agency_line_100,1.0,7.0,5.0,20.0,19.0,0.22090156013829132,-0.015511940956068991,4
46,1,1,46,176,html-slider-response,176,1368738,2094.0,81.0,0.9,question_agency,question_agency_line_100,-9.0,5.0,6.0,18.0,21.0,0.035604119122107085,-0.11465992774036601,5
51,1,1,51,43,html-slider-response,43,833914,660023.0,100.0,1.0,question_agency,question_agency_line_100,0.0,5.0,6.0,0.0,4.0,0.0,0.03897348669291652,1
50,1,1,50,65,html-slider-response,65,926195,2266.0,0.0,1.0,question_agency,question_agency_line_100,-100.0,8.0,12.0,0.0,0.0,0.0,0.0,2
54,1,1,54,108,html-slider-response,108,1095481,1831.0,100.0,1.0,question_agency,question_agency_line_100,0.0,8.0,4.0,12.0,10.0,0.1644447947197297,0.008732948233359883,3
53,1,1,53,145,html-slider-response,145,1234145,2299.0,100.0,1.0,question_agency,question_agency_line_100,0.0,8.0,5.0,12.0,4.0,-0.06730286631858735,0.302958551591001,4
52,1,1,52,164,html-slider-response,164,1323458,6050.0,100.0,1.0,question_agency,question_agency_line_100,0.0,2.0,4.0,4.0,4.0,-0.05847738358390684,7.7968561422994e-18,5
1,2,1,1,28,html-slider-response,28,165784,6938.0,0.0,0.0,question_agency,question_agency_line_100,0.0,6.0,4.0,34.0,26.0,-0.0014829042744075387,0.36423229066134244,1
0,2,1,0,68,html-slider-response,68,336095,4609.0,1.0,0.0,question_agency,question_agency_line_100,1.0,8.0,5.0,13.0,20.0,0.04796741658923536,-0.24094588342422638,2
2,2,1,2,99,html-slider-response,99,464236,3142.0,7.0,0.0,question_agency,question_agency_line_100,7.0,7.0,8.0,33.0,0.0,-0.05935303797771365,0.0,3
4,2,1,4,139,html-slider-response,139,628221,3246.0,10.0,0.0,question_agency,question_agency_line_100,10.0,6.0,9.0,3.0,8.0,0.4869314878894041,0.03661474325835719,4
3,2,1,3,167,html-slider-response,167,749042,3552.0,17.0,0.0,question_agency,question_agency_line_100,17.0,5.0,8.0,13.0,0.0,0.1474004126556341,0.0,5
9,2,1,9,40,html-slider-response,40,214796,3354.0,20.0,0.1,question_agency,question_agency_line_100,10.0,7.0,7.0,26.0,23.0,0.26440646704578674,-0.11852558771818138,1
7,2,1,7,77,html-slider-response,77,372552,3053.0,10.0,0.1,question_agency,question_agency_line_100,0.0,9.0,10.0,2.0,20.0,-0.11891046723308858,0.234572229316093,2
6,2,1,6,102,html-slider-response,102,477368,4119.0,1.0,0.1,question_agency,question_agency_line_100,-9.0,11.0,5.0,15.0,0.0,-0.23641502359959368,0.0,3
5,2,1,5,133,html-slider-response,133,604326,3535.0,3.0,0.1,question_agency,question_agency_line_100,-7.0,6.0,8.0,20.0,8.0,0.14467997981373557,0.18214420880284007,4
8,2,1,8,182,html-slider-response,182,816620,2969.0,6.0,0.1,question_agency,question_agency_line_100,-4.0,9.0,7.0,21.0,0.0,-0.05579074554928066,0.0,5
12,2,1,12,37,html-slider-response,37,202577,3042.0,16.0,0.2,question_agency,question_agency_line_100,-4.0,9.0,7.0,25.0,6.0,0.035105031385537035,-0.026055873270244893,1
14,2,1,14,71,html-slider-response,71,348300,3195.0,20.0,0.2,question_agency,question_agency_line_100,0.0,7.0,6.0,15.0,0.0,0.007020703715903082,0.0,2
13,2,1,13,90,html-slider-response,90,425501,4438.0,40.0,0.2,question_agency,question_agency_line_100,20.0,6.0,8.0,10.0,2.0,-0.283716254933245,0.29320146727066276,3
10,2,1,10,130,html-slider-response,130,591774,3252.0,7.0,0.2,question_agency,question_agency_line_100,-13.0,9.0,11.0,29.0,0.0,0.0666268601160334,0.0,4
11,2,1,11,185,html-slider-response,185,829310,3664.0,17.0,0.2,question_agency,question_agency_line_100,-3.0,4.0,4.0,7.0,0.0,0.355489355148048,0.0,5
18,2,1,18,22,html-slider-response,22,136131,8989.0,4.0,0.3,question_agency,question_agency_line_100,-26.0,6.0,4.0,7.0,2.0,0.3155552573547611,0.10806567439651667,1
16,2,1,16,83,html-slider-response,83,397517,3501.0,24.0,0.3,question_agency,question_agency_line_100,-6.0,9.0,6.0,21.0,0.0,0.2081657040092034,0.0,2
19,2,1,19,105,html-slider-response,105,489329,2942.0,1.0,0.3,question_agency,question_agency_line_100,-29.0,6.0,7.0,3.0,4.0,-0.019030512300626082,-0.06553945564193156,3
15,2,1,15,136,html-slider-response,136,615959,2624.0,24.0,0.3,question_agency,question_agency_line_100,-6.0,5.0,9.0,18.0,0.0,-0.4567361276718288,0.0,4
17,2,1,17,170,html-slider-response,170,763414,5356.0,21.0,0.3,question_agency,question_agency_line_100,-9.0,7.0,8.0,9.0,0.0,0.16811954939418797,0.0,5
24,2,1,24,43,html-slider-response,43,228986,5165.0,48.0,0.4,question_agency,question_agency_line_100,8.0,7.0,8.0,31.0,19.0,0.12005918919158079,0.17118433641285435,1
22,2,1,22,56,html-slider-response,56,281447,3664.0,30.0,0.4,question_agency,question_agency_line_100,-10.0,8.0,9.0,46.0,10.0,0.15733347162141897,-0.18641835621360772,2
23,2,1,23,96,html-slider-response,96,452070,3563.0,13.0,0.4,question_agency,question_agency_line_100,-27.0,7.0,6.0,16.0,0.0,-0.03951959045704908,0.0,3
21,2,1,21,145,html-slider-response,145,656395,6392.0,14.0,0.4,question_agency,question_agency_line_100,-26.0,8.0,10.0,8.0,0.0,0.25214881640408926,0.0,4
20,2,1,20,188,html-slider-response,188,841005,2691.0,40.0,0.4,question_agency,question_agency_line_100,0.0,7.0,7.0,11.0,0.0,0.08469518683880871,0.0,5
28,2,1,28,25,html-slider-response,25,149832,4681.0,67.0,0.5,question_agency,question_agency_line_100,17.0,8.0,9.0,53.0,3.0,-0.03725974923851311,0.28598362069948274,1
25,2,1,25,65,html-slider-response,65,322471,5630.0,46.0,0.5,question_agency,question_agency_line_100,-4.0,5.0,5.0,10.0,1.0,-0.25336209727288994,0.25400974057908626,2
29,2,1,29,93,html-slider-response,93,439502,4992.0,70.0,0.5,question_agency,question_agency_line_100,20.0,9.0,7.0,7.0,0.0,-0.08815171486943639,0.0,3
26,2,1,26,142,html-slider-response,142,640987,3753.0,29.0,0.5,question_agency,question_agency_line_100,-21.0,8.0,6.0,13.0,0.0,-0.4194157894406846,0.0,4
27,2,1,27,164,html-slider-response,164,736470,3582.0,64.0,0.5,question_agency,question_agency_line_100,14.0,7.0,9.0,2.0,13.0,0.03269670979538797,-0.14719049791238256,5
32,2,1,32,34,html-slider-response,34,190521,3618.0,66.0,0.6,question_agency,question_agency_line_100,6.0,6.0,6.0,6.0,29.0,0.24778466848846378,-0.32259806810692015,1
31,2,1,31,59,html-slider-response,59,294079,3624.0,60.0,0.6,question_agency,question_agency_line_100,0.0,6.0,7.0,6.0,12.0,0.06783717630634709,-0.5431100062430835,2
33,2,1,33,120,html-slider-response,120,552385,3117.0,65.0,0.6,question_agency,question_agency_line_100,5.0,5.0,6.0,9.0,4.0,-0.31776285273875415,0.07507413146194351,3
34,2,1,34,127,html-slider-response,127,579499,4404.0,69.0,0.6,question_agency,question_agency_line_100,9.0,7.0,8.0,14.0,2.0,-0.3508544354787848,-0.13740393427902353,4
30,2,1,30,179,html-slider-response,179,804628,6826.0,66.0,0.6,question_agency,question_agency_line_100,6.0,6.0,7.0,7.0,0.0,-0.5548058328412022,0.0,5
38,2,1,38,46,html-slider-response,46,241647,3732.0,72.0,0.7,question_agency,question_agency_line_100,2.0,7.0,10.0,10.0,2.0,-0.14931883999910203,-0.2750212901237743,1
37,2,1,37,74,html-slider-response,74,360484,3174.0,60.0,0.7,question_agency,question_agency_line_100,-10.0,6.0,10.0,5.0,12.0,-0.3855093670653863,-0.13327200216396265,2
39,2,1,39,111,html-slider-response,111,514952,3658.0,86.0,0.7,question_agency,question_agency_line_100,16.0,6.0,7.0,7.0,2.0,0.4678514822923592,0.27921325643368494,3
35,2,1,35,151,html-slider-response,151,681517,3869.0,89.0,0.7,question_agency,question_agency_line_100,19.0,5.0,7.0,6.0,4.0,0.4674779727593264,0.12204626174748538,4
36,2,1,36,176,html-slider-response,176,788792,4152.0,84.0,0.7,question_agency,question_agency_line_100,14.0,12.0,8.0,5.0,4.0,-0.019130463504555315,-0.09814110245222084,5
44,2,1,44,52,html-slider-response,52,266675,3621.0,98.0,0.8,question_agency,question_agency_line_100,18.0,7.0,6.0,7.0,7.0,0.07976676180148648,0.0985435915444356,1
40,2,1,40,80,html-slider-response,80,385009,3432.0,70.0,0.8,question_agency,question_agency_line_100,-10.0,6.0,7.0,7.0,4.0,-0.12323659159012207,0.09382339515666684,2
43,2,1,43,114,html-slider-response,114,527167,3191.0,18.0,0.8,question_agency,question_agency_line_100,-62.0,8.0,6.0,2.0,1.0,0.05829203869672978,0.017170265258445276,3
42,2,1,42,154,html-slider-response,154,695820,5279.0,89.0,0.8,question_agency,question_agency_line_100,9.0,8.0,9.0,4.0,4.0,0.29923994027991757,0.1795602679457975,4
41,2,1,41,158,html-slider-response,158,711247,3728.0,89.0,0.8,question_agency,question_agency_line_100,9.0,9.0,9.0,8.0,2.0,-0.057876535483995475,0.38420698534845105,5
47,2,1,47,31,html-slider-response,31,177878,3090.0,97.0,0.9,question_agency,question_agency_line_100,7.0,8.0,8.0,7.0,4.0,0.12742547105874116,0.010227697578961076,1
48,2,1,48,86,html-slider-response,86,410239,3705.0,83.0,0.9,question_agency,question_agency_line_100,-7.0,9.0,7.0,5.0,4.0,-0.01518602907604818,-0.1262497694981857,2
49,2,1,49,117,html-slider-response,117,540258,4078.0,82.0,0.9,question_agency,question_agency_line_100,-8.0,8.0,7.0,4.0,4.0,0.2550773386985131,0.0776248553709064,3
46,2,1,46,124,html-slider-response,124,566076,2762.0,95.0,0.9,question_agency,question_agency_line_100,5.0,7.0,7.0,4.0,4.0,0.27769162251095336,-0.4497204553758573,4
45,2,1,45,161,html-slider-response,161,723865,3766.0,91.0,0.9,question_agency,question_agency_line_100,1.0,7.0,5.0,5.0,4.0,0.00408483071203478,-0.1449590932143763,5
54,2,1,54,49,html-slider-response,49,254047,3385.0,93.0,1.0,question_agency,question_agency_line_100,-7.0,7.0,7.0,6.0,4.0,-0.3641095610514215,0.2678644982595993,1
53,2,1,53,62,html-slider-response,62,307823,4819.0,97.0,1.0,question_agency,question_agency_line_100,-3.0,7.0,9.0,8.0,6.0,-0.2321240311665111,0.053095722454351006,2
52,2,1,52,108,html-slider-response,108,502289,3944.0,96.0,1.0,question_agency,question_agency_line_100,-4.0,7.0,5.0,7.0,4.0,0.050515937804593236,-0.22298354384518074,3
50,2,1,50,148,html-slider-response,148,668625,3221.0,98.0,1.0,question_agency,question_agency_line_100,-2.0,8.0,8.0,7.0,4.0,0.4834141551990319,-0.33705064009882385,4
51,2,1,51,173,html-slider-response,173,775622,3190.0,100.0,1.0,question_agency,question_agency_line_100,0.0,7.0,5.0,7.0,4.0,-0.12417792989941678,-0.04619356940701901,5
4,3,1,4,40,html-slider-response,40,180572,2888.0,0.0,0.0,question_agency,question_agency_line_100,0.0,7.0,2.0,10.0,20.0,-0.07271543272718034,0.5563817506050894,1
2,3,1,2,74,html-slider-response,74,312308,3203.0,2.0,0.0,question_agency,question_agency_line_100,2.0,6.0,10.0,21.0,12.0,-0.42487201146306325,0.11541335227459548,2
1,3,1,1,96,html-slider-response,96,397020,3394.0,1.0,0.0,question_agency,question_agency_line_100,1.0,9.0,6.0,24.0,6.0,-0.2281344143028071,-0.07981182155092408,3
0,3,1,0,130,html-slider-response,130,537460,3314.0,0.0,0.0,question_agency,question_agency_line_100,0.0,5.0,8.0,19.0,14.0,0.3186965437147766,-0.0706147196239488,4
3,3,1,3,164,html-slider-response,164,676084,2200.0,8.0,0.0,question_agency,question_agency_line_100,8.0,10.0,5.0,22.0,18.0,-0.09567282130948962,-0.2926593643407471,5
5,3,1,5,49,html-slider-response,49,215876,2971.0,17.0,0.1,question_agency,question_agency_line_100,7.0,6.0,6.0,26.0,8.0,0.5039121192107512,0.34490660025436,1
6,3,1,6,68,html-slider-response,68,287259,2772.0,2.0,0.1,question_agency,question_agency_line_100,-8.0,6.0,5.0,14.0,18.0,-0.36809603511526395,0.09111134312641751,2
7,3,1,7,108,html-slider-response,108,450164,4969.0,23.0,0.1,question_agency,question_agency_line_100,13.0,9.0,8.0,23.0,10.0,-0.21534680992479338,-0.06316115912484589,3
9,3,1,9,148,html-slider-response,148,609683,2802.0,17.0,0.1,question_agency,question_agency_line_100,7.0,8.0,6.0,30.0,12.0,-0.2764518582320793,-0.5175929326153107,4
8,3,1,8,167,html-slider-response,167,687692,2593.0,0.0,0.1,question_agency,question_agency_line_100,-10.0,7.0,5.0,36.0,24.0,0.0001764686912067787,-0.173573161944647,5
10,3,1,10,34,html-slider-response,34,156035,5416.0,2.0,0.2,question_agency,question_agency_line_100,-18.0,6.0,10.0,14.0,14.0,-0.2530516021583884,0.09240038993403388,1
14,3,1,14,83,html-slider-response,83,347915,2693.0,4.0,0.2,question_agency,question_agency_line_100,-16.0,7.0,7.0,14.0,18.0,-0.020159438724080336,-0.30066467670123814,2
13,3,1,13,90,html-slider-response,90,372988,2565.0,18.0,0.2,question_agency,question_agency_line_100,-2.0,8.0,8.0,23.0,10.0,-0.159436382990117,-0.017569111235272522,3
12,3,1,12,127,html-slider-response,127,525132,3220.0,15.0,0.2,question_agency,question_agency_line_100,-5.0,6.0,7.0,16.0,12.0,0.28119343280996656,-0.16492073305959404,4
11,3,1,11,173,html-slider-response,173,710388,1954.0,7.0,0.2,question_agency,question_agency_line_100,-13.0,6.0,8.0,28.0,24.0,-0.3258167823095989,-0.025937992914018076,5
18,3,1,18,46,html-slider-response,46,203885,2551.0,26.0,0.3,question_agency,question_agency_line_100,-4.0,5.0,10.0,18.0,13.0,-0.09338770343190195,0.1442693863071687,1
16,3,1,16,77,html-slider-response,77,324364,3026.0,6.0,0.3,question_agency,question_agency_line_100,-24.0,5.0,5.0,13.0,12.0,0.2582175308868658,-0.04160844155064171,2
19,3,1,19,114,html-slider-response,114,473829,3335.0,20.0,0.3,question_agency,question_agency_line_100,-10.0,6.0,9.0,15.0,11.0,-0.6547565091427162,0.14858969307209113,3
15,3,1,15,139,html-slider-response,139,574652,3721.0,20.0,0.3,question_agency,question_agency_line_100,-10.0,6.0,8.0,13.0,10.0,0.20983232692487136,-0.2240541982072628,4
17,3,1,17,188,html-slider-response,188,766908,3189.0,11.0,0.3,question_agency,question_agency_line_100,-19.0,9.0,5.0,23.0,23.0,-0.10706149726001461,0.10410034451562844,5
24,3,1,24,52,html-slider-response,52,226956,2069.0,31.0,0.4,question_agency,question_agency_line_100,-9.0,6.0,7.0,9.0,20.0,-0.003400811801241619,-0.0050815250840355,1
21,3,1,21,62,html-slider-response,62,263644,2324.0,9.0,0.4,question_agency,question_agency_line_100,-31.0,7.0,6.0,16.0,11.0,-0.2194153302790205,-0.06059721621353376,2
23,3,1,23,93,html-slider-response,93,384611,2618.0,50.0,0.4,question_agency,question_agency_line_100,10.0,9.0,8.0,8.0,13.0,0.5474984151114206,-0.08770071993257512,3
20,3,1,20,145,html-slider-response,145,597875,2011.0,72.0,0.4,question_agency,question_agency_line_100,32.0,8.0,9.0,15.0,14.0,0.09724629659442159,0.3060213317155228,4
22,3,1,22,158,html-slider-response,158,653940,4223.0,58.0,0.4,question_agency,question_agency_line_100,18.0,7.0,7.0,18.0,16.0,-0.12217409609551313,-0.03988797468394297,5
26,3,1,26,28,html-slider-response,28,129491,2126.0,29.0,0.5,question_agency,question_agency_line_100,-21.0,8.0,7.0,11.0,12.0,0.5142493796918658,0.31323385634607914,1
25,3,1,25,86,html-slider-response,86,359708,2785.0,41.0,0.5,question_agency,question_agency_line_100,-9.0,8.0,9.0,11.0,11.0,0.19905498122055487,-0.0742570322604252,2
28,3,1,28,111,html-slider-response,111,461484,2303.0,42.0,0.5,question_agency,question_agency_line_100,-8.0,5.0,5.0,9.0,11.0,-0.25863371124220325,-0.18175430479753124,3
29,3,1,29,124,html-slider-response,124,512901,4072.0,45.0,0.5,question_agency,question_agency_line_100,-5.0,8.0,6.0,11.0,12.0,0.08862987091162197,-0.08737091469017494,4
27,3,1,27,182,html-slider-response,182,743525,2270.0,69.0,0.5,question_agency,question_agency_line_100,19.0,7.0,8.0,12.0,9.0,0.2909399381497665,0.19920124223535016,5
33,3,1,33,25,html-slider-response,25,118348,3216.0,50.0,0.6,question_agency,question_agency_line_100,-10.0,9.0,8.0,9.0,6.0,-0.4096499230968947,-0.42788869546880487,1
34,3,1,34,80,html-slider-response,80,336212,2839.0,18.0,0.6,question_agency,question_agency_line_100,-42.0,7.0,8.0,7.0,5.0,0.08111403287633874,-0.3029262715342305,2
32,3,1,32,105,html-slider-response,105,436180,4106.0,43.0,0.6,question_agency,question_agency_line_100,-17.0,8.0,5.0,7.0,13.0,-0.24076786846884743,0.28588290541283623,3
30,3,1,30,151,html-slider-response,151,620907,2211.0,49.0,0.6,question_agency,question_agency_line_100,-11.0,9.0,7.0,13.0,12.0,0.06357091867473119,0.22334720354780993,4
31,3,1,31,161,html-slider-response,161,664869,1916.0,60.0,0.6,question_agency,question_agency_line_100,0.0,6.0,5.0,13.0,10.0,0.07565777831104599,-0.737223729727727,5
37,3,1,37,37,html-slider-response,37,168668,3618.0,83.0,0.7,question_agency,question_agency_line_100,13.0,7.0,4.0,14.0,11.0,0.27473197801328786,-0.3401918959454218,1
39,3,1,39,59,html-slider-response,59,252316,2114.0,77.0,0.7,question_agency,question_agency_line_100,7.0,4.0,7.0,7.0,15.0,-0.30736599671218057,-0.1560361320314351,2
35,3,1,35,102,html-slider-response,102,423044,5304.0,81.0,0.7,question_agency,question_agency_line_100,11.0,4.0,5.0,10.0,10.0,0.3578015531559541,0.19324683970441295,3
36,3,1,36,136,html-slider-response,136,561924,2610.0,60.0,0.7,question_agency,question_agency_line_100,-10.0,6.0,8.0,12.0,13.0,-0.2520643373916091,0.09915982500927512,4
38,3,1,38,170,html-slider-response,170,699420,2719.0,80.0,0.7,question_agency,question_agency_line_100,10.0,7.0,10.0,12.0,23.0,-0.13066104310025453,0.013166380840243592,5
42,3,1,42,43,html-slider-response,43,192316,2728.0,84.0,0.8,question_agency,question_agency_line_100,4.0,8.0,7.0,16.0,12.0,-0.1826766809674071,-0.3106566041188555,1
43,3,1,43,56,html-slider-response,56,241196,2026.0,90.0,0.8,question_agency,question_agency_line_100,10.0,6.0,5.0,10.0,14.0,0.16225731994665432,0.023372161074709005,2
44,3,1,44,120,html-slider-response,120,498236,2975.0,94.0,0.8,question_agency,question_agency_line_100,14.0,7.0,9.0,8.0,14.0,-0.14957334797434163,0.03504596740581698,3
41,3,1,41,133,html-slider-response,133,550300,3819.0,92.0,0.8,question_agency,question_agency_line_100,12.0,6.0,8.0,13.0,11.0,-0.5375596673641206,-0.20344073599530269,4
40,3,1,40,176,html-slider-response,176,721237,1820.0,87.0,0.8,question_agency,question_agency_line_100,7.0,9.0,11.0,13.0,17.0,0.2317145188477874,0.30862389227478815,5
45,3,1,45,22,html-slider-response,22,106108,4228.0,86.0,0.9,question_agency,question_agency_line_100,-4.0,6.0,6.0,11.0,12.0,-0.1620822650292994,-0.1119719524188773,1
49,3,1,49,71,html-slider-response,71,300084,3810.0,98.0,0.9,question_agency,question_agency_line_100,8.0,6.0,7.0,9.0,12.0,0.3145580639879569,-0.3726740835880426,2
47,3,1,47,99,html-slider-response,99,408716,2686.0,97.0,0.9,question_agency,question_agency_line_100,7.0,6.0,6.0,6.0,10.0,-0.30676625080938724,-0.44146695179162393,3
46,3,1,46,142,html-slider-response,142,586860,3196.0,94.0,0.9,question_agency,question_agency_line_100,4.0,6.0,9.0,11.0,13.0,-0.07862946444751245,0.145940927620423,4
48,3,1,48,179,html-slider-response,179,732238,1984.0,97.0,0.9,question_agency,question_agency_line_100,7.0,6.0,7.0,7.0,12.0,-0.16418974878182416,0.025367291449503778,5
53,3,1,53,31,html-slider-response,31,141611,3112.0,100.0,1.0,question_agency,question_agency_line_100,0.0,6.0,5.0,9.0,11.0,0.1934059019484411,-0.15459593067279964,1
51,3,1,51,65,html-slider-response,65,275476,2822.0,100.0,1.0,question_agency,question_agency_line_100,0.0,4.0,10.0,9.0,15.0,0.03428324925340819,0.38886279477037866,2
50,3,1,50,117,html-slider-response,117,486236,3391.0,100.0,1.0,question_agency,question_agency_line_100,0.0,6.0,5.0,5.0,6.0,0.21558675336554858,-0.3711790109364441,3
54,3,1,54,154,html-slider-response,154,632932,3016.0,100.0,1.0,question_agency,question_agency_line_100,0.0,9.0,9.0,11.0,15.0,0.3570140776714708,0.41442533096902395,4
52,3,1,52,185,html-slider-response,185,754692,2155.0,100.0,1.0,question_agency,question_agency_line_100,0.0,9.0,6.0,17.0,17.0,0.11117715098573643,0.13692530009253012,5
4,4,1,4,49,html-slider-response,49,195967,2654.0,0.0,0.0,question_agency,question_agency_line_100,0.0,6.0,6.0,23.0,16.0,0.22159907182604843,-0.25725302141808154,1
1,4,1,1,80,html-slider-response,80,322382,2468.0,0.0,0.0,question_agency,question_agency_line_100,0.0,5.0,5.0,9.0,10.0,-0.16149205730287056,0.2435025879337106,2
3,4,1,3,111,html-slider-response,111,452134,2492.0,0.0,0.0,question_agency,question_agency_line_100,0.0,7.0,5.0,19.0,7.0,-0.005797883434716038,-0.1491579724285901,3
0,4,1,0,145,html-slider-response,145,597999,3686.0,3.0,0.0,question_agency,question_agency_line_100,3.0,9.0,7.0,8.0,4.0,0.0722585369720516,0.06638593435315211,4
2,4,1,2,170,html-slider-response,170,705623,2389.0,0.0,0.0,question_agency,question_agency_line_100,0.0,8.0,6.0,12.0,13.0,-0.15216913848860433,0.05574014905798612,5
6,4,1,6,28,html-slider-response,28,109751,2660.0,0.0,0.1,question_agency,question_agency_line_100,-10.0,7.0,8.0,17.0,14.0,-0.03761474870282697,-0.21016377941267436,1
8,4,1,8,68,html-slider-response,68,276375,3396.0,0.0,0.1,question_agency,question_agency_line_100,-10.0,7.0,7.0,11.0,13.0,0.3236914724775715,0.24968758679123224,2
9,4,1,9,96,html-slider-response,96,391966,3241.0,30.0,0.1,question_agency,question_agency_line_100,20.0,7.0,5.0,5.0,8.0,0.10579730948517012,-0.19536035494871185,3
7,4,1,7,154,html-slider-response,154,635567,5391.0,4.0,0.1,question_agency,question_agency_line_100,-6.0,7.0,9.0,17.0,5.0,0.03171577545349144,-0.007407162982716727,4
5,4,1,5,185,html-slider-response,185,767527,2372.0,0.0,0.1,question_agency,question_agency_line_100,-10.0,8.0,7.0,6.0,10.0,0.06430246510309896,-0.02517992581259258,5
11,4,1,11,22,html-slider-response,22,84287,4122.0,10.0,0.2,question_agency,question_agency_line_100,-10.0,9.0,6.0,13.0,14.0,-0.294378421628221,-0.06097803870363681,1
10,4,1,10,62,html-slider-response,62,252007,2781.0,10.0,0.2,question_agency,question_agency_line_100,-10.0,6.0,7.0,18.0,17.0,0.20456738662442053,-0.2733633391356594,2
14,4,1,14,114,html-slider-response,114,463542,2390.0,1.0,0.2,question_agency,question_agency_line_100,-19.0,9.0,6.0,14.0,9.0,-0.005510959295161305,-0.3341494348067958,3
13,4,1,13,139,html-slider-response,139,573814,2488.0,3.0,0.2,question_agency,question_agency_line_100,-17.0,8.0,9.0,10.0,5.0,0.493860641387723,-0.3193904547694846,4
12,4,1,12,164,html-slider-response,164,682543,2792.0,0.0,0.2,question_agency,question_agency_line_100,-20.0,9.0,7.0,27.0,25.0,-0.007006032743298863,-0.13734090161370618,5
19,4,1,19,31,html-slider-response,31,121655,2887.0,10.0,0.3,question_agency,question_agency_line_100,-20.0,8.0,6.0,10.0,5.0,-0.059173274600704165,0.17306742532414313,1
16,4,1,16,77,html-slider-response,77,310894,1989.0,15.0,0.3,question_agency,question_agency_line_100,-15.0,7.0,10.0,14.0,17.0,0.3390111234372921,-0.1261712653074342,2
17,4,1,17,90,html-slider-response,90,368710,3105.0,36.0,0.3,question_agency,question_agency_line_100,6.0,6.0,7.0,14.0,16.0,0.011544074356404529,0.1518512858527468,3
15,4,1,15,136,html-slider-response,136,562303,4821.0,15.0,0.3,question_agency,question_agency_line_100,-15.0,6.0,8.0,11.0,12.0,0.42088318100469513,-0.006973730650552944,4
18,4,1,18,158,html-slider-response,158,659543,2868.0,8.0,0.3,question_agency,question_agency_line_100,-22.0,9.0,7.0,13.0,5.0,0.14237707630793267,0.19934374655565418,5
21,4,1,21,25,html-slider-response,25,98079,4782.0,20.0,0.4,question_agency,question_agency_line_100,-20.0,8.0,7.0,14.0,11.0,-0.0380732388900005,-0.14005363020160558,1
20,4,1,20,59,html-slider-response,59,240207,3524.0,39.0,0.4,question_agency,question_agency_line_100,-1.0,7.0,8.0,11.0,12.0,-0.04735615471509156,0.10796675284850459,2
23,4,1,23,102,html-slider-response,102,415742,1931.0,10.0,0.4,question_agency,question_agency_line_100,-30.0,6.0,5.0,17.0,10.0,-0.21446665983798216,0.08378096036123893,3
24,4,1,24,133,html-slider-response,133,548470,3816.0,41.0,0.4,question_agency,question_agency_line_100,1.0,5.0,7.0,9.0,10.0,0.36697827632646496,-0.003371430692335523,4
22,4,1,22,167,html-slider-response,167,694223,2666.0,3.0,0.4,question_agency,question_agency_line_100,-37.0,9.0,7.0,8.0,10.0,-0.3352381926109565,0.3253132732523335,5
26,4,1,26,52,html-slider-response,52,208559,3576.0,19.0,0.5,question_agency,question_agency_line_100,-31.0,9.0,7.0,16.0,15.0,-0.006253983109195272,-0.24009986377517176,1
28,4,1,28,74,html-slider-response,74,299895,1830.0,34.0,0.5,question_agency,question_agency_line_100,-16.0,8.0,7.0,17.0,12.0,-0.10839731582841958,0.28395135390573506,2
29,4,1,29,120,html-slider-response,120,485558,2049.0,36.0,0.5,question_agency,question_agency_line_100,-14.0,9.0,9.0,10.0,16.0,0.08309240579936887,0.15772096933803514,3
27,4,1,27,124,html-slider-response,124,511615,3523.0,27.0,0.5,question_agency,question_agency_line_100,-23.0,5.0,8.0,5.0,9.0,-0.260426163126924,0.06071660267934632,4
25,4,1,25,173,html-slider-response,173,716575,1949.0,10.0,0.5,question_agency,question_agency_line_100,-40.0,6.0,9.0,7.0,7.0,0.42765603371875255,0.09582616191764114,5
32,4,1,32,37,html-slider-response,37,146794,2505.0,54.0,0.6,question_agency,question_agency_line_100,-6.0,8.0,9.0,9.0,13.0,-0.3926476880525106,0.13658899583101722,1
33,4,1,33,71,html-slider-response,71,289055,3665.0,58.0,0.6,question_agency,question_agency_line_100,-2.0,7.0,5.0,10.0,11.0,0.3756046918751434,-0.21757817362046553,2
34,4,1,34,117,html-slider-response,117,474502,1957.0,50.0,0.6,question_agency,question_agency_line_100,-10.0,4.0,5.0,9.0,12.0,0.01620312892571215,0.3878306973395797,3
30,4,1,30,151,html-slider-response,151,621167,2401.0,50.0,0.6,question_agency,question_agency_line_100,-10.0,6.0,6.0,4.0,7.0,0.5426902260279737,-0.47388663167052025,4
31,4,1,31,161,html-slider-response,161,670735,2182.0,37.0,0.6,question_agency,question_agency_line_100,-23.0,6.0,7.0,9.0,9.0,-0.23685761756805687,0.534346226922691,5
36,4,1,36,43,html-slider-response,43,171655,3542.0,60.0,0.7,question_agency,question_agency_line_100,-10.0,7.0,9.0,6.0,19.0,-0.1430226156997687,0.10535813128953428,1
39,4,1,39,56,html-slider-response,56,227671,2452.0,50.0,0.7,question_agency,question_agency_line_100,-20.0,5.0,4.0,10.0,11.0,0.04137670227586569,-0.37040407700465844,2
38,4,1,38,93,html-slider-response,93,379710,1984.0,60.0,0.7,question_agency,question_agency_line_100,-10.0,7.0,6.0,9.0,14.0,0.3176069535277077,-0.11807874726683482,3
35,4,1,35,127,html-slider-response,127,522639,2009.0,50.0,0.7,question_agency,question_agency_line_100,-20.0,5.0,8.0,5.0,11.0,-0.5133348855693146,0.14912122264321048,4
37,4,1,37,182,html-slider-response,182,756151,1993.0,63.0,0.7,question_agency,question_agency_line_100,-7.0,8.0,5.0,7.0,15.0,0.019908569498452704,-0.03267788076302515,5
41,4,1,41,46,html-slider-response,46,184295,3626.0,60.0,0.8,question_agency,question_agency_line_100,-20.0,6.0,8.0,3.0,16.0,-0.11345464153413753,0.2309715665098326,1
43,4,1,43,86,html-slider-response,86,345214,2277.0,76.0,0.8,question_agency,question_agency_line_100,-4.0,8.0,6.0,8.0,17.0,0.043228117656846796,0.06103844696060427,2
40,4,1,40,108,html-slider-response,108,440622,3357.0,84.0,0.8,question_agency,question_agency_line_100,4.0,5.0,6.0,5.0,10.0,0.6083244519575014,0.17842875132775632,3
42,4,1,42,142,html-slider-response,142,585302,2473.0,78.0,0.8,question_agency,question_agency_line_100,-2.0,8.0,8.0,7.0,15.0,-0.2866226041477467,0.0035090032947639417,4
44,4,1,44,176,html-slider-response,176,727831,2243.0,91.0,0.8,question_agency,question_agency_line_100,11.0,8.0,8.0,12.0,15.0,0.4660706726685701,-0.2937862804666421,5
49,4,1,49,40,html-slider-response,40,159103,3288.0,93.0,0.9,question_agency,question_agency_line_100,3.0,8.0,8.0,8.0,13.0,-0.0972252711057347,0.07986219798927195,1
48,4,1,48,83,html-slider-response,83,334006,2612.0,95.0,0.9,question_agency,question_agency_line_100,5.0,6.0,6.0,4.0,15.0,-0.10118516577132497,0.14313442559971792,2
47,4,1,47,99,html-slider-response,99,404798,3814.0,92.0,0.9,question_agency,question_agency_line_100,2.0,10.0,7.0,3.0,10.0,0.026813576811289826,-0.07047799118668342,3
46,4,1,46,130,html-slider-response,130,535639,3978.0,96.0,0.9,question_agency,question_agency_line_100,6.0,6.0,7.0,8.0,11.0,-0.48435436561422324,-0.304175387753671,4
45,4,1,45,188,html-slider-response,188,779047,2499.0,92.0,0.9,question_agency,question_agency_line_100,2.0,6.0,7.0,5.0,12.0,0.09449768137656311,-0.13414932733395518,5
52,4,1,52,34,html-slider-response,34,135271,4595.0,100.0,1.0,question_agency,question_agency_line_100,0.0,6.0,4.0,8.0,13.0,-0.037154149130306235,0.3637554851156417,1
50,4,1,50,65,html-slider-response,65,263959,2939.0,100.0,1.0,question_agency,question_agency_line_100,0.0,5.0,5.0,6.0,7.0,-0.09111546546966275,-0.05114261426257558,2
54,4,1,54,105,html-slider-response,105,428255,3500.0,100.0,1.0,question_agency,question_agency_line_100,0.0,8.0,6.0,3.0,9.0,0.4346633970695058,0.12171884262988736,3
53,4,1,53,148,html-slider-response,148,609751,2744.0,100.0,1.0,question_agency,question_agency_line_100,0.0,4.0,3.0,13.0,15.0,-0.3293073396922129,-0.08835360403141583,4
51,4,1,51,179,html-slider-response,179,745143,8294.0,100.0,1.0,question_agency,question_agency_line_100,0.0,7.0,3.0,19.0,17.0,-0.10642319917153646,0.14591901687601103,5
4,5,1,4,49,html-slider-response,49,225773,2872.0,24.0,0.0,question_agency,question_agency_line_100,24.0,6.0,6.0,13.0,2.0,-0.27159739860473053,0.0791270178276417,1
1,5,1,1,77,html-slider-response,77,356552,2584.0,0.0,0.0,question_agency,question_agency_line_100,0.0,6.0,9.0,16.0,2.0,-0.3183947213252681,-0.10519047436653867,2
0,5,1,0,114,html-slider-response,114,511406,4358.0,19.0,0.0,question_agency,question_agency_line_100,19.0,7.0,7.0,6.0,11.0,-0.23827900523510953,0.11723810735997924,3
3,5,1,3,133,html-slider-response,133,587811,2875.0,30.0,0.0,question_agency,question_agency_line_100,30.0,6.0,9.0,11.0,8.0,0.10883747357872973,0.09834556341695214,4
2,5,1,2,161,html-slider-response,161,744222,2645.0,20.0,0.0,question_agency,question_agency_line_100,20.0,1.0,1.0,0.0,0.0,0.0,0.0,5
8,5,1,8,40,html-slider-response,40,190770,2454.0,34.0,0.1,question_agency,question_agency_line_100,24.0,8.0,7.0,4.0,9.0,0.23461003030803915,-0.2735207275122655,1
6,5,1,6,74,html-slider-response,74,344962,3514.0,30.0,0.1,question_agency,question_agency_line_100,20.0,8.0,9.0,13.0,4.0,-0.07222464841811561,0.27553415592850294,2
5,5,1,5,108,html-slider-response,108,480289,2656.0,0.0,0.1,question_agency,question_agency_line_100,-10.0,9.0,11.0,7.0,4.0,0.32256542438560004,0.2767621794793195,3
9,5,1,9,139,html-slider-response,139,614119,6102.0,0.0,0.1,question_agency,question_agency_line_100,-10.0,8.0,6.0,6.0,4.0,0.13398026479417116,-0.309590031133487,4
7,5,1,7,170,html-slider-response,170,779528,3217.0,8.0,0.1,question_agency,question_agency_line_100,-2.0,6.0,2.0,0.0,0.0,0.0,0.0,5
12,5,1,12,52,html-slider-response,52,240356,5576.0,50.0,0.2,question_agency,question_agency_line_100,30.0,9.0,6.0,2.0,1.0,0.28943994088106184,-0.30461561818485444,1
10,5,1,10,65,html-slider-response,65,305920,6078.0,34.0,0.2,question_agency,question_agency_line_100,14.0,5.0,5.0,9.0,4.0,0.17242237361861157,-0.27954883067659764,2
11,5,1,11,99,html-slider-response,99,442948,2705.0,19.0,0.2,question_agency,question_agency_line_100,-1.0,7.0,6.0,9.0,6.0,0.5081768646377919,0.4890265326058337,3
13,5,1,13,130,html-slider-response,130,575931,5043.0,10.0,0.2,question_agency,question_agency_line_100,-10.0,8.0,8.0,8.0,9.0,-0.3221402846921039,0.5026697340180648,4
14,5,1,14,179,html-slider-response,179,817727,4575.0,0.0,0.2,question_agency,question_agency_line_100,-20.0,6.0,4.0,0.0,0.0,0.0,0.0,5
16,5,1,16,43,html-slider-response,43,202310,2532.0,14.0,0.3,question_agency,question_agency_line_100,-16.0,7.0,6.0,6.0,8.0,0.2904930605632963,0.33510142528283504,1
18,5,1,18,59,html-slider-response,59,278776,2754.0,39.0,0.3,question_agency,question_agency_line_100,9.0,10.0,7.0,5.0,8.0,-0.00906149563876244,0.29397951311361986,2
17,5,1,17,111,html-slider-response,111,498038,8743.0,20.0,0.3,question_agency,question_agency_line_100,-10.0,10.0,9.0,7.0,3.0,0.40772768333040316,0.02364424223006501,3
15,5,1,15,142,html-slider-response,142,626240,3117.0,10.0,0.3,question_agency,question_agency_line_100,-20.0,7.0,9.0,3.0,6.0,-0.14902109557992538,-0.09278333567707668,4
19,5,1,19,188,html-slider-response,188,877944,2078.0,19.0,0.3,question_agency,question_agency_line_100,-11.0,9.0,9.0,0.0,0.0,0.0,0.0,5
23,5,1,23,28,html-slider-response,28,144994,2501.0,40.0,0.4,question_agency,question_agency_line_100,0.0,11.0,9.0,17.0,4.0,0.0005572560658991715,-0.0014146831056339045,1
21,5,1,21,62,html-slider-response,62,290837,3054.0,29.0,0.4,question_agency,question_agency_line_100,-11.0,10.0,9.0,6.0,5.0,-0.12301815424673389,-0.23481994522103922,2
20,5,1,20,90,html-slider-response,90,407131,4682.0,25.0,0.4,question_agency,question_agency_line_100,-15.0,7.0,5.0,6.0,7.0,0.20818478553016037,0.17213674424939576,3
22,5,1,22,136,html-slider-response,136,599009,2193.0,21.0,0.4,question_agency,question_agency_line_100,-19.0,6.0,8.0,8.0,4.0,-0.4439208150935506,0.1581045666366167,4
24,5,1,24,185,html-slider-response,185,866858,10327.0,1.0,0.4,question_agency,question_agency_line_100,-39.0,1.0,2.0,0.0,0.0,0.0,0.0,5
27,5,1,27,22,html-slider-response,22,122149,3273.0,20.0,0.5,question_agency,question_agency_line_100,-30.0,8.0,8.0,4.0,10.0,-0.035267611365910584,-0.018631892197635707,1
29,5,1,29,83,html-slider-response,83,379597,2680.0,35.0,0.5,question_agency,question_agency_line_100,-15.0,5.0,8.0,2.0,0.0,0.7396743068119443,0.0,2
28,5,1,28,105,html-slider-response,105,468628,2344.0,33.0,0.5,question_agency,question_agency_line_100,-17.0,7.0,7.0,9.0,3.0,-0.45785758228950596,0.04013459556628914,3
26,5,1,26,124,html-slider-response,124,548965,2130.0,40.0,0.5,question_agency,question_agency_line_100,-10.0,6.0,8.0,6.0,5.0,0.5682386700318252,-0.08191198770897357,4
25,5,1,25,173,html-slider-response,173,791631,3097.0,10.0,0.5,question_agency,question_agency_line_100,-40.0,8.0,8.0,0.0,0.0,0.0,0.0,5
31,5,1,31,31,html-slider-response,31,156226,2226.0,29.0,0.6,question_agency,question_agency_line_100,-31.0,9.0,6.0,6.0,7.0,-0.33449046610713207,-0.6582625917346697,1
32,5,1,32,71,html-slider-response,71,332443,2338.0,50.0,0.6,question_agency,question_agency_line_100,-10.0,7.0,7.0,2.0,4.0,-0.09911958230869622,-0.15988265326917053,2
30,5,1,30,93,html-slider-response,93,419456,3320.0,14.0,0.6,question_agency,question_agency_line_100,-46.0,6.0,9.0,6.0,3.0,0.3834755201426323,-0.19899496314195642,3
34,5,1,34,151,html-slider-response,151,662008,2702.0,10.0,0.6,question_agency,question_agency_line_100,-50.0,9.0,6.0,1.0,0.0,-0.04582595191669676,0.0,4
33,5,1,33,167,html-slider-response,167,767305,3103.0,0.0,0.6,question_agency,question_agency_line_100,-60.0,7.0,7.0,0.0,0.0,0.0,0.0,5
38,5,1,38,37,html-slider-response,37,179311,2131.0,71.0,0.7,question_agency,question_agency_line_100,1.0,7.0,6.0,6.0,9.0,-0.01463033953013469,0.23973990095601297,1
37,5,1,37,56,html-slider-response,56,267016,2684.0,70.0,0.7,question_agency,question_agency_line_100,0.0,8.0,7.0,3.0,8.0,-0.018432243652514287,-0.01761656747738508,2
36,5,1,36,120,html-slider-response,120,536174,2760.0,59.0,0.7,question_agency,question_agency_line_100,-11.0,6.0,7.0,4.0,3.0,0.212829949504834,0.3477950098676617,3
39,5,1,39,145,html-slider-response,145,638662,3415.0,0.0,0.7,question_agency,question_agency_line_100,-70.0,9.0,5.0,2.0,4.0,0.07177006923988151,0.7164312315294705,4
35,5,1,35,182,html-slider-response,182,847525,20726.0,2.0,0.7,question_agency,question_agency_line_100,-68.0,2.0,2.0,0.0,0.0,0.0,0.0,5
41,5,1,41,34,html-slider-response,34,168171,2931.0,80.0,0.8,question_agency,question_agency_line_100,0.0,8.0,6.0,9.0,7.0,0.4204258137004376,0.0366582226348028,1
44,5,1,44,68,html-slider-response,68,321101,6174.0,71.0,0.8,question_agency,question_agency_line_100,-9.0,8.0,7.0,7.0,8.0,0.02642914117514938,-0.07011189374663136,2
43,5,1,43,96,html-slider-response,96,431237,2774.0,34.0,0.8,question_agency,question_agency_line_100,-46.0,9.0,6.0,6.0,6.0,0.23102384117602112,0.28318538768579243,3
42,5,1,42,154,html-slider-response,154,673530,2517.0,0.0,0.8,question_agency,question_agency_line_100,-80.0,4.0,5.0,0.0,0.0,0.0,0.0,4
40,5,1,40,176,html-slider-response,176,804146,3511.0,0.0,0.8,question_agency,question_agency_line_100,-80.0,6.0,12.0,0.0,0.0,0.0,0.0,5
47,5,1,47,25,html-slider-response,25,133486,2331.0,50.0,0.9,question_agency,question_agency_line_100,-40.0,8.0,3.0,5.0,5.0,0.03584812742904098,0.12085693468465389,1
46,5,1,46,80,html-slider-response,80,367911,2354.0,21.0,0.9,question_agency,question_agency_line_100,-69.0,6.0,5.0,4.0,5.0,-0.23352989235515034,-0.4911187620440915,2
48,5,1,48,102,html-slider-response,102,457280,5328.0,66.0,0.9,question_agency,question_agency_line_100,-24.0,6.0,10.0,4.0,5.0,-0.07630926569844347,0.491026906413748,3
49,5,1,49,148,html-slider-response,148,650302,2636.0,87.0,0.9,question_agency,question_agency_line_100,-3.0,6.0,8.0,5.0,3.0,-0.6109042708851588,0.13557135816091764,4
45,5,1,45,164,html-slider-response,164,755453,2224.0,0.0,0.9,question_agency,question_agency_line_100,-90.0,4.0,5.0,0.0,0.0,0.0,0.0,5
51,5,1,51,46,html-slider-response,46,213896,2581.0,80.0,1.0,question_agency,question_agency_line_100,-20.0,6.0,4.0,4.0,6.0,0.07439963651738347,-0.42077734670703343,1
54,5,1,54,86,html-slider-response,86,391552,2951.0,94.0,1.0,question_agency,question_agency_line_100,-6.0,6.0,9.0,3.0,4.0,0.07790294586022181,0.25372419834114257,2
53,5,1,53,117,html-slider-response,117,524407,3994.0,90.0,1.0,question_agency,question_agency_line_100,-10.0,8.0,5.0,3.0,4.0,0.21922343386902823,-0.04375615585539006,3
52,5,1,52,127,html-slider-response,127,561883,3914.0,100.0,1.0,question_agency,question_agency_line_100,0.0,8.0,7.0,5.0,5.0,0.07149040659457646,0.4290054917077737,4
50,5,1,50,158,html-slider-response,158,732574,11029.0,0.0,1.0,question_agency,question_agency_line_100,-100.0,8.0,6.0,0.0,0.0,0.0,0.0,5
4,6,1,4,52,html-slider-response,52,206146,2518.0,0.0,0.0,question_agency,question_agency_line_100,0.0,6.0,5.0,15.0,22.0,-0.18349987043943009,-0.22926174807880959,1
3,6,1,3,74,html-slider-response,74,384066,1924.0,0.0,0.0,question_agency,question_agency_line_100,0.0,6.0,7.0,9.0,15.0,-0.28944444740220404,0.3263709608015924,2
2,6,1,2,111,html-slider-response,111,657390,2963.0,0.0,0.0,question_agency,question_agency_line_100,0.0,5.0,5.0,12.0,8.0,-0.22083944808166275,-0.022387604625655855,3
1,6,1,1,133,html-slider-response,133,801454,2780.0,0.0,0.0,question_agency,question_agency_line_100,0.0,5.0,6.0,16.0,4.0,0.2248783572047435,-0.1500161634385527,4
0,6,1,0,161,html-slider-response,161,947023,3531.0,14.0,0.0,question_agency,question_agency_line_100,14.0,6.0,9.0,13.0,26.0,0.1675543527749354,-0.23905586288830263,5
5,6,1,5,22,html-slider-response,22,76882,3497.0,10.0,0.1,question_agency,question_agency_line_100,0.0,10.0,11.0,14.0,20.0,0.06356592574656245,0.0527309011756516,1
8,6,1,8,62,html-slider-response,62,336604,5407.0,35.0,0.1,question_agency,question_agency_line_100,25.0,8.0,7.0,6.0,17.0,0.053771456224529134,-0.27066707456219363,2
7,6,1,7,117,html-slider-response,117,681231,2717.0,4.0,0.1,question_agency,question_agency_line_100,-6.0,8.0,6.0,14.0,17.0,-0.17251414123287845,-0.09542402696936092,3
6,6,1,6,130,html-slider-response,130,789646,2887.0,0.0,0.1,question_agency,question_agency_line_100,-10.0,7.0,4.0,13.0,6.0,0.025683212698127608,-0.22567721998404727,4
9,6,1,9,188,html-slider-response,188,1066266,3565.0,38.0,0.1,question_agency,question_agency_line_100,28.0,9.0,6.0,19.0,12.0,0.1542074233922111,0.1264927571306963,5
13,6,1,13,37,html-slider-response,37,137693,3397.0,11.0,0.2,question_agency,question_agency_line_100,-9.0,5.0,8.0,12.0,15.0,-0.10679386946527657,-0.0444965285203849,1
14,6,1,14,71,html-slider-response,71,373131,3257.0,10.0,0.2,question_agency,question_agency_line_100,-10.0,7.0,7.0,13.0,20.0,-0.13553666517843366,-0.058874819460721886,2
11,6,1,11,96,html-slider-response,96,600463,2085.0,3.0,0.2,question_agency,question_agency_line_100,-17.0,8.0,8.0,14.0,24.0,0.10320183989933153,-0.2639515981693468,3
10,6,1,10,127,html-slider-response,127,777751,4907.0,0.0,0.2,question_agency,question_agency_line_100,-20.0,5.0,6.0,10.0,6.0,-0.10224684169292966,-0.27746097858704294,4
12,6,1,12,170,html-slider-response,170,984325,3377.0,1.0,0.2,question_agency,question_agency_line_100,-19.0,7.0,6.0,19.0,6.0,0.13653328682397162,0.12567422382410076,5
19,6,1,19,40,html-slider-response,40,149393,2690.0,15.0,0.3,question_agency,question_agency_line_100,-15.0,8.0,7.0,14.0,10.0,0.04777399995490766,-0.11037494228461978,1
17,6,1,17,77,html-slider-response,77,397289,4212.0,39.0,0.3,question_agency,question_agency_line_100,9.0,8.0,6.0,8.0,14.0,0.12302728261433186,-0.09705729862691378,2
15,6,1,15,105,html-slider-response,105,634207,1868.0,7.0,0.3,question_agency,question_agency_line_100,-23.0,8.0,8.0,11.0,8.0,-0.044462641282018926,0.36656145533548823,3
16,6,1,16,142,html-slider-response,142,860696,4477.0,0.0,0.3,question_agency,question_agency_line_100,-30.0,6.0,7.0,13.0,2.0,-0.13793224426032466,0.20538606631434383,4
18,6,1,18,173,html-slider-response,173,997047,3715.0,17.0,0.3,question_agency,question_agency_line_100,-13.0,6.0,5.0,9.0,7.0,0.2284022169062027,-0.22422142662378797,5
20,6,1,20,25,html-slider-response,25,88805,2904.0,25.0,0.4,question_agency,question_agency_line_100,-15.0,4.0,4.0,15.0,16.0,-0.2977364577689097,-0.5152967022454851,1
22,6,1,22,86,html-slider-response,86,434723,3212.0,50.0,0.4,question_agency,question_agency_line_100,10.0,8.0,9.0,8.0,10.0,-0.05132004954859809,-0.32334779344520664,2
23,6,1,23,93,html-slider-response,93,589362,26259.0,34.0,0.4,question_agency,question_agency_line_100,-6.0,3.0,6.0,4.0,4.0,0.1086051540101765,0.00039990256296091773,3
21,6,1,21,139,html-slider-response,139,847195,3682.0,23.0,0.4,question_agency,question_agency_line_100,-17.0,5.0,5.0,9.0,11.0,-0.07096683216367124,0.032570344576713886,4
24,6,1,24,185,html-slider-response,185,1053849,3876.0,66.0,0.4,question_agency,question_agency_line_100,26.0,7.0,7.0,8.0,9.0,0.04104151968739051,0.49434299351147337,5
26,6,1,26,31,html-slider-response,31,113453,2408.0,58.0,0.5,question_agency,question_agency_line_100,8.0,11.0,10.0,12.0,11.0,0.3629222507182691,0.43693706122771553,1
29,6,1,29,56,html-slider-response,56,308981,2816.0,81.0,0.5,question_agency,question_agency_line_100,31.0,7.0,9.0,16.0,19.0,-0.07905652783276897,0.043986210822754473,2
28,6,1,28,120,html-slider-response,120,692856,2612.0,70.0,0.5,question_agency,question_agency_line_100,20.0,6.0,8.0,6.0,6.0,0.5747991804439676,0.20289168763594645,3
25,6,1,25,145,html-slider-response,145,879461,9743.0,80.0,0.5,question_agency,question_agency_line_100,30.0,7.0,9.0,10.0,11.0,-0.04715052669797711,-0.0969013378814988,4
27,6,1,27,176,html-slider-response,176,1016792,10735.0,40.0,0.5,question_agency,question_agency_line_100,-10.0,11.0,8.0,8.0,9.0,0.028025606613667115,-0.07619388898675057,5
30,6,1,30,34,html-slider-response,34,125280,2818.0,96.0,0.6,question_agency,question_agency_line_100,36.0,5.0,9.0,15.0,17.0,0.35801815008235394,0.33807396940569456,1
34,6,1,34,68,html-slider-response,68,360845,2770.0,95.0,0.6,question_agency,question_agency_line_100,35.0,7.0,8.0,19.0,13.0,0.15126123023652183,0.11856276422005176,2
32,6,1,32,90,html-slider-response,90,554096,4928.0,50.0,0.6,question_agency,question_agency_line_100,-10.0,5.0,5.0,24.0,21.0,-0.18920979247063624,-0.1489311937752661,3
33,6,1,33,154,html-slider-response,154,921327,2900.0,80.0,0.6,question_agency,question_agency_line_100,20.0,6.0,8.0,8.0,4.0,0.111777186557306,0.11659495361382007,4
31,6,1,31,179,html-slider-response,179,1028644,2846.0,82.0,0.6,question_agency,question_agency_line_100,22.0,6.0,10.0,9.0,8.0,0.18236037043302392,-0.04335846461505335,5
37,6,1,37,28,html-slider-response,28,102030,4211.0,95.0,0.7,question_agency,question_agency_line_100,25.0,7.0,7.0,16.0,13.0,0.15210489919248568,-0.21623520246425487,1
39,6,1,39,83,html-slider-response,83,422480,4170.0,66.0,0.7,question_agency,question_agency_line_100,-4.0,5.0,5.0,13.0,12.0,-0.23057413799615623,-0.18281440937043045,2
36,6,1,36,114,html-slider-response,114,669502,3102.0,60.0,0.7,question_agency,question_agency_line_100,-10.0,8.0,6.0,7.0,8.0,0.046684607580745247,-0.20569073164200483,3
35,6,1,35,148,html-slider-response,148,892322,3847.0,81.0,0.7,question_agency,question_agency_line_100,11.0,9.0,6.0,7.0,14.0,-0.15607991334166413,-0.1341158954116006,4
38,6,1,38,158,html-slider-response,158,934474,2916.0,50.0,0.7,question_agency,question_agency_line_100,-20.0,7.0,6.0,11.0,9.0,-0.6247722307655557,-0.4682096513880998,5
41,6,1,41,46,html-slider-response,46,181262,3051.0,89.0,0.8,question_agency,question_agency_line_100,9.0,10.0,11.0,13.0,15.0,0.4394323573862035,0.07411423389634701,1
42,6,1,42,80,html-slider-response,80,409295,2991.0,85.0,0.8,question_agency,question_agency_line_100,5.0,9.0,8.0,9.0,8.0,-0.03990222040986452,0.22140346441240735,2
43,6,1,43,99,html-slider-response,99,612268,2791.0,96.0,0.8,question_agency,question_agency_line_100,16.0,8.0,7.0,20.0,22.0,0.0716523764760302,-0.08539059311191545,3
44,6,1,44,124,html-slider-response,124,763830,2169.0,81.0,0.8,question_agency,question_agency_line_100,1.0,8.0,4.0,9.0,4.0,0.14442407689415837,0.13622883676647268,4
40,6,1,40,167,html-slider-response,167,971936,3550.0,81.0,0.8,question_agency,question_agency_line_100,1.0,7.0,6.0,11.0,8.0,-0.11488959348584121,-0.10992766850291502,5
47,6,1,47,43,html-slider-response,43,169194,10777.0,93.0,0.9,question_agency,question_agency_line_100,3.0,4.0,6.0,13.0,12.0,0.30175570988711276,-0.23549574822330344,1
46,6,1,46,65,html-slider-response,65,349050,3424.0,93.0,0.9,question_agency,question_agency_line_100,3.0,8.0,9.0,15.0,14.0,0.348798721048879,-0.20741657730063923,2
49,6,1,49,108,html-slider-response,108,645419,2192.0,93.0,0.9,question_agency,question_agency_line_100,3.0,9.0,5.0,13.0,9.0,0.3288409516942325,0.1893841325959661,3
45,6,1,45,136,html-slider-response,136,834505,24031.0,91.0,0.9,question_agency,question_agency_line_100,1.0,5.0,9.0,4.0,4.0,0.38633934838997314,0.31322688339340177,4
48,6,1,48,182,html-slider-response,182,1040945,3287.0,97.0,0.9,question_agency,question_agency_line_100,7.0,11.0,5.0,11.0,5.0,0.07909239144370697,0.07902990631822811,5
53,6,1,53,49,html-slider-response,49,194619,4350.0,100.0,1.0,question_agency,question_agency_line_100,0.0,10.0,9.0,14.0,18.0,0.02883823973486848,-0.1534106275110121,1
52,6,1,52,59,html-slider-response,59,322166,4169.0,100.0,1.0,question_agency,question_agency_line_100,0.0,10.0,8.0,16.0,16.0,-0.03376248114313291,0.26900180933413315,2
54,6,1,54,102,html-slider-response,102,623323,2039.0,100.0,1.0,question_agency,question_agency_line_100,0.0,7.0,6.0,6.0,8.0,0.2930978278283351,0.11476229560094706,3
50,6,1,50,151,html-slider-response,151,909413,8078.0,100.0,1.0,question_agency,question_agency_line_100,0.0,8.0,5.0,16.0,14.0,0.28013169913927655,0.06476155121828414,4
51,6,1,51,164,html-slider-response,164,959367,3329.0,100.0,1.0,question_agency,question_agency_line_100,0.0,8.0,5.0,23.0,19.0,-0.06013630130253495,-0.10227449093317072,5
4,7,1,4,49,html-slider-response,49,216982,3418.0,0.0,0.0,question_agency,question_agency_line_100,0.0,8.0,7.0,20.0,23.0,-0.05083976362917464,-0.1334758542664222,1
3,7,1,3,62,html-slider-response,62,283854,11697.0,0.0,0.0,question_agency,question_agency_line_100,0.0,4.0,8.0,10.0,12.0,-0.2613776204764349,0.2443630414040222,2
1,7,1,1,111,html-slider-response,111,554430,20218.0,9.0,0.0,question_agency,question_agency_line_100,9.0,4.0,6.0,8.0,8.0,0.13615579883975695,0.013940764942812845,3
2,7,1,2,136,html-slider-response,136,668734,3874.0,4.0,0.0,question_agency,question_agency_line_100,4.0,8.0,7.0,6.0,6.0,0.12432167309572013,0.13059079443834207,4
0,7,1,0,158,html-slider-response,158,885870,2217.0,0.0,0.0,question_agency,question_agency_line_100,0.0,4.0,6.0,50.0,34.0,-0.0844388312900814,0.12237865914143163,5
9,7,1,9,25,html-slider-response,25,118815,3560.0,0.0,0.1,question_agency,question_agency_line_100,-10.0,3.0,5.0,16.0,13.0,-0.06884275207714828,-0.2981503301308482,1
6,7,1,6,65,html-slider-response,65,295624,2762.0,0.0,0.1,question_agency,question_agency_line_100,-10.0,9.0,6.0,30.0,22.0,-0.2560504686473611,-0.005866586423443587,2
7,7,1,7,96,html-slider-response,96,429118,6801.0,0.0,0.1,question_agency,question_agency_line_100,-10.0,6.0,7.0,17.0,11.0,-0.11932612416905788,0.20710769973169968,3
8,7,1,8,142,html-slider-response,142,694815,4690.0,0.0,0.1,question_agency,question_agency_line_100,-10.0,6.0,8.0,21.0,16.0,0.049783990489884855,0.2859847994786093,4
5,7,1,5,161,html-slider-response,161,904894,10018.0,10.0,0.1,question_agency,question_agency_line_100,0.0,4.0,4.0,56.0,42.0,-0.05298069079275206,0.14006840892804154,5
11,7,1,11,28,html-slider-response,28,130990,3167.0,10.0,0.2,question_agency,question_agency_line_100,-10.0,5.0,5.0,18.0,18.0,0.12890489258600607,-0.3682347350065302,1
14,7,1,14,71,html-slider-response,71,319797,2594.0,6.0,0.2,question_agency,question_agency_line_100,-14.0,5.0,6.0,23.0,12.0,0.12403990903636801,0.19969618601788666,2
13,7,1,13,117,html-slider-response,117,577870,2483.0,9.0,0.2,question_agency,question_agency_line_100,-11.0,7.0,7.0,24.0,22.0,-0.11450945468305122,-0.06261442789117616,3
12,7,1,12,154,html-slider-response,154,874198,3627.0,0.0,0.2,question_agency,question_agency_line_100,-20.0,9.0,6.0,39.0,31.0,-0.07847711299904366,-0.21358564582780337,4
10,7,1,10,170,html-slider-response,170,1008432,29044.0,8.0,0.2,question_agency,question_agency_line_100,-12.0,7.0,7.0,0.0,0.0,0.0,0.0,5
18,7,1,18,31,html-slider-response,31,142878,2881.0,10.0,0.3,question_agency,question_agency_line_100,-20.0,9.0,8.0,8.0,33.0,0.23910423885003368,-0.22079727003481864,1
17,7,1,17,59,html-slider-response,59,263151,6827.0,0.0,0.3,question_agency,question_agency_line_100,-30.0,8.0,9.0,21.0,16.0,0.2215588767947765,0.32782235979070107,2
16,7,1,16,108,html-slider-response,108,525206,28417.0,9.0,0.3,question_agency,question_agency_line_100,-21.0,7.0,5.0,24.0,14.0,0.0205346589006118,-0.04457741012633957,3
19,7,1,19,133,html-slider-response,133,655854,18088.0,3.0,0.3,question_agency,question_agency_line_100,-27.0,5.0,7.0,23.0,20.0,0.15123809256940532,0.021442520035110556,4
15,7,1,15,185,html-slider-response,185,1091488,2050.0,7.0,0.3,question_agency,question_agency_line_100,-23.0,3.0,5.0,18.0,15.0,-0.34725196286834664,-0.33446017906396414,5
24,7,1,24,46,html-slider-response,46,204558,3051.0,22.0,0.4,question_agency,question_agency_line_100,-18.0,5.0,6.0,16.0,10.0,0.02868446142886691,-0.037494802336939324,1
20,7,1,20,68,html-slider-response,68,308197,3568.0,9.0,0.4,question_agency,question_agency_line_100,-31.0,8.0,6.0,10.0,10.0,-0.12211701069961237,0.16004984853173782,2
22,7,1,22,120,html-slider-response,120,589423,2546.0,3.0,0.4,question_agency,question_agency_line_100,-37.0,7.0,7.0,10.0,18.0,-0.011638995622994995,0.02026064596350125,3
21,7,1,21,148,html-slider-response,148,754586,38410.0,16.0,0.4,question_agency,question_agency_line_100,-24.0,6.0,4.0,14.0,10.0,-0.17365275094676225,-0.10868868171671847,4
23,7,1,23,173,html-slider-response,173,1022744,5306.0,5.0,0.4,question_agency,question_agency_line_100,-35.0,9.0,7.0,34.0,27.0,0.0007749720790025863,0.09602486074202483,5
29,7,1,29,34,html-slider-response,34,157015,5129.0,29.0,0.5,question_agency,question_agency_line_100,-21.0,7.0,9.0,8.0,19.0,0.27222267983416504,-0.059547717799881286,1
28,7,1,28,83,html-slider-response,83,366150,3258.0,25.0,0.5,question_agency,question_agency_line_100,-25.0,7.0,8.0,12.0,13.0,0.21735618099361403,-0.05991776874974191,2
27,7,1,27,93,html-slider-response,93,413310,4635.0,15.0,0.5,question_agency,question_agency_line_100,-35.0,4.0,4.0,19.0,11.0,-0.2954291079839718,0.3398967922435453,3
25,7,1,25,127,html-slider-response,127,616270,2250.0,17.0,0.5,question_agency,question_agency_line_100,-33.0,7.0,9.0,15.0,8.0,-0.5075236179407135,0.3223506840092116,4
26,7,1,26,167,html-slider-response,167,970383,34099.0,3.0,0.5,question_agency,question_agency_line_100,-47.0,6.0,4.0,22.0,23.0,-0.25248024281031833,0.18870771396408104,5
34,7,1,34,22,html-slider-response,22,106247,12302.0,30.0,0.6,question_agency,question_agency_line_100,-30.0,8.0,6.0,9.0,5.0,-0.3895547349036531,-0.1835845156478763,1
31,7,1,31,77,html-slider-response,77,342750,2095.0,22.0,0.6,question_agency,question_agency_line_100,-38.0,8.0,8.0,17.0,10.0,0.4139680166773898,-0.15828859405772816,2
30,7,1,30,90,html-slider-response,90,399670,4620.0,21.0,0.6,question_agency,question_agency_line_100,-39.0,10.0,9.0,22.0,16.0,0.21597628920139417,0.12284959075322398,3
32,7,1,32,151,html-slider-response,151,861566,97970.0,7.0,0.6,question_agency,question_agency_line_100,-53.0,7.0,8.0,13.0,10.0,-0.17547272293876515,-0.08869977066482201,4
33,7,1,33,179,html-slider-response,179,1068520,2170.0,3.0,0.6,question_agency,question_agency_line_100,-57.0,6.0,10.0,13.0,13.0,0.2120365829203845,0.2972494239457586,5
37,7,1,37,43,html-slider-response,43,192502,1895.0,50.0,0.7,question_agency,question_agency_line_100,-20.0,5.0,6.0,9.0,9.0,0.14315904512062155,-0.6743041549898289,1
36,7,1,36,56,html-slider-response,56,247318,5288.0,75.0,0.7,question_agency,question_agency_line_100,5.0,8.0,8.0,8.0,11.0,0.36304733604840816,0.0068175672389383995,2
39,7,1,39,99,html-slider-response,99,440743,2621.0,71.0,0.7,question_agency,question_agency_line_100,1.0,8.0,7.0,11.0,12.0,-0.025094031110541825,-0.37857490807954647,3
35,7,1,35,139,html-slider-response,139,681119,3379.0,19.0,0.7,question_agency,question_agency_line_100,-51.0,8.0,7.0,6.0,4.0,-0.14771655015218618,-0.12512632772641832,4
38,7,1,38,176,html-slider-response,176,1057344,25594.0,10.0,0.7,question_agency,question_agency_line_100,-60.0,6.0,9.0,15.0,14.0,0.2706810853500226,-0.09744825145653456,5
43,7,1,43,37,html-slider-response,37,169822,3800.0,58.0,0.8,question_agency,question_agency_line_100,-22.0,4.0,7.0,9.0,10.0,0.01191553434755955,-0.2353229121843638,1
42,7,1,42,86,html-slider-response,86,377253,2100.0,61.0,0.8,question_agency,question_agency_line_100,-19.0,8.0,9.0,9.0,8.0,-0.16564731797550564,0.3488779855921417,2
41,7,1,41,114,html-slider-response,114,566382,2946.0,60.0,0.8,question_agency,question_agency_line_100,-20.0,11.0,6.0,14.0,12.0,-0.18015342628921954,0.07588696386838767,3
44,7,1,44,145,html-slider-response,145,707135,3314.0,84.0,0.8,question_agency,question_agency_line_100,4.0,11.0,9.0,14.0,10.0,-0.20956766336737453,-0.07641050394455404,4
40,7,1,40,188,html-slider-response,188,1112840,12347.0,2.0,0.8,question_agency,question_agency_line_100,-78.0,6.0,7.0,11.0,6.0,0.06430737776354188,-0.10105412280446133,5
48,7,1,48,40,html-slider-response,40,181599,2768.0,70.0,0.9,question_agency,question_agency_line_100,-20.0,7.0,7.0,12.0,10.0,-0.12165369728617197,0.00614887361854832,1
47,7,1,47,80,html-slider-response,80,353885,2130.0,89.0,0.9,question_agency,question_agency_line_100,-1.0,10.0,4.0,10.0,6.0,0.2214300486305588,-0.1419753093969836,2
46,7,1,46,102,html-slider-response,102,453133,3384.0,89.0,0.9,question_agency,question_agency_line_100,-1.0,8.0,3.0,10.0,7.0,-0.06163005488593945,-0.20192257757395668,3
45,7,1,45,124,html-slider-response,124,605014,3010.0,93.0,0.9,question_agency,question_agency_line_100,3.0,6.0,7.0,9.0,10.0,-0.4010206851949917,0.14198423195393767,4
49,7,1,49,182,html-slider-response,182,1080433,2907.0,95.0,0.9,question_agency,question_agency_line_100,5.0,8.0,7.0,17.0,14.0,-0.08006766971960581,-0.30246414399236254,5
53,7,1,53,52,html-slider-response,52,230046,4058.0,100.0,1.0,question_agency,question_agency_line_100,0.0,8.0,5.0,20.0,22.0,-0.05955242881784237,-0.028300310553123185,1
52,7,1,52,74,html-slider-response,74,331647,2844.0,100.0,1.0,question_agency,question_agency_line_100,0.0,6.0,10.0,10.0,6.0,-0.6010948835566037,0.15940538525710543,2
54,7,1,54,105,html-slider-response,105,487783,25645.0,100.0,1.0,question_agency,question_agency_line_100,0.0,6.0,7.0,11.0,10.0,0.04960763776125459,-0.08602655426069863,3
50,7,1,50,130,html-slider-response,130,628758,3484.0,100.0,1.0,question_agency,question_agency_line_100,0.0,5.0,8.0,14.0,14.0,0.5287661970538418,-0.013856863538892823,4
51,7,1,51,164,html-slider-response,164,927279,13380.0,100.0,1.0,question_agency,question_agency_line_100,0.0,6.0,9.0,20.0,10.0,0.03954163333880191,0.3229698515266018,5
0,8,1,0,22,html-slider-response,22,77050,3726.0,0.0,0.0,question_agency,question_agency_line_100,0.0,10.0,6.0,16.0,10.0,0.10048170480835074,0.27066090499154793,1
3,8,1,3,56,html-slider-response,56,217778,3562.0,0.0,0.0,question_agency,question_agency_line_100,0.0,10.0,10.0,12.0,15.0,0.10262344567821848,-0.18757389167560298,2
4,8,1,4,99,html-slider-response,99,393226,3352.0,0.0,0.0,question_agency,question_agency_line_100,0.0,3.0,8.0,8.0,11.0,-0.47725144733592395,0.4246830312004219,3
2,8,1,2,127,html-slider-response,127,506362,3592.0,0.0,0.0,question_agency,question_agency_line_100,0.0,6.0,8.0,9.0,14.0,-0.1936616847998791,-0.18818068724587617,4
1,8,1,1,176,html-slider-response,176,705282,2356.0,0.0,0.0,question_agency,question_agency_line_100,0.0,5.0,5.0,10.0,16.0,-0.11219392128087577,-0.11445052300876868,5
7,8,1,7,46,html-slider-response,46,178715,6063.0,1.0,0.1,question_agency,question_agency_line_100,-9.0,8.0,6.0,15.0,12.0,-0.025928139988018562,0.09741889802850306,1
9,8,1,9,68,html-slider-response,68,268018,3521.0,5.0,0.1,question_agency,question_agency_line_100,-5.0,5.0,6.0,6.0,13.0,0.32667449141914096,-0.5150988763902961,2
6,8,1,6,120,html-slider-response,120,479138,3902.0,9.0,0.1,question_agency,question_agency_line_100,-1.0,8.0,8.0,10.0,14.0,0.09032595990152778,0.025097338896303063,3
8,8,1,8,142,html-slider-response,142,567410,3614.0,0.0,0.1,question_agency,question_agency_line_100,-10.0,5.0,8.0,13.0,10.0,0.17882603849810802,-0.21144049421176206,4
5,8,1,5,161,html-slider-response,161,644099,2237.0,0.0,0.1,question_agency,question_agency_line_100,-10.0,6.0,8.0,12.0,12.0,0.09845249869272105,0.24824817644719824,5
12,8,1,12,40,html-slider-response,40,151426,5090.0,12.0,0.2,question_agency,question_agency_line_100,-8.0,7.0,9.0,11.0,14.0,-0.2721700975903325,0.22511293355977377,1
14,8,1,14,59,html-slider-response,59,230459,3662.0,0.0,0.2,question_agency,question_agency_line_100,-20.0,7.0,7.0,12.0,11.0,-0.29611909559449157,-0.19593595334169794,2
11,8,1,11,111,html-slider-response,111,441894,3139.0,2.0,0.2,question_agency,question_agency_line_100,-18.0,9.0,4.0,11.0,10.0,0.0038128991275640034,-0.12168903248933943,3
13,8,1,13,151,html-slider-response,151,606930,3415.0,2.0,0.2,question_agency,question_agency_line_100,-18.0,9.0,8.0,6.0,13.0,0.006992820346346468,0.029704250424008708,4
10,8,1,10,167,html-slider-response,167,669939,3280.0,2.0,0.2,question_agency,question_agency_line_100,-18.0,6.0,8.0,11.0,16.0,-0.04037541384710296,-0.4434778620620015,5
17,8,1,17,34,html-slider-response,34,125635,3481.0,11.0,0.3,question_agency,question_agency_line_100,-19.0,5.0,6.0,9.0,10.0,0.03891579921844234,0.363069339730392,1
16,8,1,16,62,html-slider-response,62,243114,3635.0,2.0,0.3,question_agency,question_agency_line_100,-28.0,6.0,4.0,11.0,14.0,-0.2508790842081644,-0.09735451181996504,2
15,8,1,15,108,html-slider-response,108,429737,3332.0,11.0,0.3,question_agency,question_agency_line_100,-19.0,4.0,7.0,13.0,10.0,-0.31167754528727054,-0.02242958513535998,3
18,8,1,18,136,html-slider-response,136,543451,3450.0,0.0,0.3,question_agency,question_agency_line_100,-30.0,6.0,9.0,15.0,10.0,-0.014495424700138733,-0.23628426855781728,4
19,8,1,19,185,html-slider-response,185,742363,3458.0,9.0,0.3,question_agency,question_agency_line_100,-21.0,7.0,10.0,9.0,14.0,0.15093296871042605,-0.04764143277873228,5
21,8,1,21,43,html-slider-response,43,163635,3184.0,20.0,0.4,question_agency,question_agency_line_100,-20.0,7.0,5.0,10.0,11.0,0.3636346791124937,0.1529339032507002,1
22,8,1,22,86,html-slider-response,86,343098,3221.0,13.0,0.4,question_agency,question_agency_line_100,-27.0,7.0,8.0,6.0,14.0,-0.12736129404230645,-0.3101515924901944,2
23,8,1,23,90,html-slider-response,90,356938,3144.0,9.0,0.4,question_agency,question_agency_line_100,-31.0,6.0,8.0,6.0,13.0,0.1263107268681778,-0.06067301716790764,3
20,8,1,20,124,html-slider-response,124,493762,3394.0,14.0,0.4,question_agency,question_agency_line_100,-26.0,7.0,7.0,7.0,10.0,0.1204766205842921,-0.2734593215132193,4
24,8,1,24,164,html-slider-response,164,657636,4510.0,26.0,0.4,question_agency,question_agency_line_100,-14.0,8.0,5.0,10.0,13.0,0.2389239893477235,0.06315561258551369,5
28,8,1,28,52,html-slider-response,52,203587,3403.0,11.0,0.5,question_agency,question_agency_line_100,-39.0,7.0,7.0,9.0,8.0,0.26192771342958926,-0.16444935899416965,1
29,8,1,29,74,html-slider-response,74,294722,5642.0,45.0,0.5,question_agency,question_agency_line_100,-5.0,8.0,10.0,12.0,10.0,0.2636708806144445,0.3896732794504332,2
26,8,1,26,114,html-slider-response,114,454292,3385.0,16.0,0.5,question_agency,question_agency_line_100,-34.0,6.0,7.0,6.0,13.0,0.3939176546482717,0.3683963942386456,3
25,8,1,25,148,html-slider-response,148,594499,3269.0,19.0,0.5,question_agency,question_agency_line_100,-31.0,8.0,7.0,12.0,9.0,-0.06746466314063722,-0.38238591379473674,4
27,8,1,27,188,html-slider-response,188,754588,3212.0,21.0,0.5,question_agency,question_agency_line_100,-29.0,10.0,11.0,14.0,6.0,0.09734534886614159,-0.012467142870162255,5
33,8,1,33,49,html-slider-response,49,191170,3436.0,19.0,0.6,question_agency,question_agency_line_100,-41.0,9.0,7.0,11.0,12.0,-0.2654619024681818,0.22654108558531189,1
34,8,1,34,65,html-slider-response,65,255490,3357.0,68.0,0.6,question_agency,question_agency_line_100,8.0,7.0,6.0,12.0,11.0,-0.13789240927136234,-0.167318784578308,2
30,8,1,30,93,html-slider-response,93,369066,3110.0,43.0,0.6,question_agency,question_agency_line_100,-17.0,7.0,7.0,11.0,8.0,0.19519890312675123,-0.16733693014451725,3
32,8,1,32,154,html-slider-response,154,619602,3656.0,48.0,0.6,question_agency,question_agency_line_100,-12.0,9.0,10.0,10.0,10.0,-0.33096975029334025,-0.03104367727137698,4
31,8,1,31,179,html-slider-response,179,718340,4034.0,18.0,0.6,question_agency,question_agency_line_100,-42.0,9.0,5.0,16.0,6.0,-0.22826866962312134,-0.16888981097465816,5
37,8,1,37,28,html-slider-response,28,101211,3374.0,63.0,0.7,question_agency,question_agency_line_100,-7.0,5.0,5.0,12.0,13.0,-0.12985431274143122,-0.10106953468093259,1
39,8,1,39,77,html-slider-response,77,307114,3386.0,59.0,0.7,question_agency,question_agency_line_100,-11.0,6.0,6.0,9.0,10.0,-0.003805215104567458,-0.19604520225014171,2
35,8,1,35,102,html-slider-response,102,405530,3291.0,61.0,0.7,question_agency,question_agency_line_100,-9.0,7.0,5.0,11.0,10.0,-0.12532973017913973,-0.16372676364313643,3
38,8,1,38,130,html-slider-response,130,518946,3579.0,71.0,0.7,question_agency,question_agency_line_100,1.0,9.0,2.0,12.0,13.0,0.4141699946998774,0.022238249815837857,4
36,8,1,36,170,html-slider-response,170,682299,3341.0,72.0,0.7,question_agency,question_agency_line_100,2.0,5.0,6.0,13.0,14.0,-0.10300467243416209,0.2775468059226177,5
44,8,1,44,25,html-slider-response,25,88818,2762.0,74.0,0.8,question_agency,question_agency_line_100,-6.0,9.0,10.0,13.0,14.0,-0.139930271557544,0.013776707970241503,1
42,8,1,42,80,html-slider-response,80,319170,3044.0,72.0,0.8,question_agency,question_agency_line_100,-8.0,5.0,6.0,12.0,12.0,-0.23595586229946214,0.4174476608424874,2
43,8,1,43,117,html-slider-response,117,466219,2912.0,69.0,0.8,question_agency,question_agency_line_100,-11.0,8.0,9.0,15.0,16.0,-0.15697849920814874,-0.11105646046054636,3
41,8,1,41,145,html-slider-response,145,582226,5797.0,78.0,0.8,question_agency,question_agency_line_100,-2.0,7.0,6.0,13.0,12.0,-0.03865596112853144,0.4432984815192219,4
40,8,1,40,158,html-slider-response,158,632851,2772.0,73.0,0.8,question_agency,question_agency_line_100,-7.0,5.0,6.0,12.0,13.0,-0.050175362755598876,-0.3461737022937289,5
49,8,1,49,31,html-slider-response,31,113139,2916.0,81.0,0.9,question_agency,question_agency_line_100,-9.0,7.0,9.0,15.0,16.0,-0.06568495164355206,0.24910254690859238,1
47,8,1,47,71,html-slider-response,71,280066,3037.0,83.0,0.9,question_agency,question_agency_line_100,-7.0,5.0,8.0,13.0,14.0,0.057090195716807755,0.07345059436159444,2
46,8,1,46,96,html-slider-response,96,380858,2784.0,81.0,0.9,question_agency,question_agency_line_100,-9.0,8.0,5.0,13.0,14.0,-0.15478432000937423,-0.38000451845464717,3
48,8,1,48,133,html-slider-response,133,530994,3042.0,80.0,0.9,question_agency,question_agency_line_100,-10.0,7.0,7.0,15.0,14.0,-0.06628631403765307,0.2182666379552277,4
45,8,1,45,173,html-slider-response,173,693908,2586.0,84.0,0.9,question_agency,question_agency_line_100,-6.0,8.0,9.0,11.0,12.0,0.28679936271640943,-0.19532632213263193,5
50,8,1,50,37,html-slider-response,37,137322,2669.0,100.0,1.0,question_agency,question_agency_line_100,0.0,11.0,4.0,12.0,12.0,-0.14751409691290687,0.030437300902276903,1
52,8,1,52,83,html-slider-response,83,330866,2686.0,100.0,1.0,question_agency,question_agency_line_100,0.0,7.0,7.0,12.0,14.0,0.008877630139489874,-0.274507828299283,2
54,8,1,54,105,html-slider-response,105,417387,2848.0,100.0,1.0,question_agency,question_agency_line_100,0.0,7.0,5.0,14.0,16.0,0.07090555660644182,-0.24384605667924075,3
51,8,1,51,139,html-slider-response,139,554778,2312.0,100.0,1.0,question_agency,question_agency_line_100,0.0,7.0,8.0,14.0,15.0,-0.022345207407150295,0.38343493294385705,4
53,8,1,53,182,html-slider-response,182,729883,2524.0,100.0,1.0,question_agency,question_agency_line_100,0.0,6.0,5.0,14.0,14.0,0.4638676079235081,-0.18858003843645083,5
4,9,1,4,43,html-slider-response,43,1320169,5516.0,0.0,0.0,question_agency,question_agency_line_100,0.0,7.0,7.0,37.0,27.0,-0.44156718400906364,-0.22872555746654694,1
3,9,1,3,77,html-slider-response,77,1451766,2111.0,0.0,0.0,question_agency,question_agency_line_100,0.0,8.0,7.0,28.0,30.0,-0.09284325052855041,0.27020307133725224,2
1,9,1,1,102,html-slider-response,102,1548401,2220.0,4.0,0.0,question_agency,question_agency_line_100,4.0,7.0,8.0,22.0,19.0,0.4926154250609425,-0.11442263784556232,3
0,9,1,0,145,html-slider-response,145,1715030,2936.0,4.0,0.0,question_agency,question_agency_line_100,4.0,11.0,8.0,30.0,28.0,0.1500745553680738,0.13037440366586522,4
2,9,1,2,164,html-slider-response,164,1787986,2549.0,0.0,0.0,question_agency,question_agency_line_100,0.0,5.0,6.0,28.0,20.0,-0.03234357444042234,0.04710430360557223,5
8,9,1,8,46,html-slider-response,46,1331818,2640.0,23.0,0.1,question_agency,question_agency_line_100,13.0,10.0,8.0,25.0,29.0,0.19153751885006304,-0.12078525036776881,1
6,9,1,6,83,html-slider-response,83,1475358,2951.0,5.0,0.1,question_agency,question_agency_line_100,-5.0,9.0,7.0,20.0,11.0,0.14401253722722612,0.09319974368478481,2
9,9,1,9,99,html-slider-response,99,1537169,3139.0,2.0,0.1,question_agency,question_agency_line_100,-8.0,7.0,5.0,28.0,27.0,-0.26192993997752867,0.11528950448734053,3
7,9,1,7,124,html-slider-response,124,1631173,2192.0,12.0,0.1,question_agency,question_agency_line_100,2.0,8.0,8.0,42.0,21.0,0.16206444970575778,0.23073315965143637,4
5,9,1,5,182,html-slider-response,182,1862195,3246.0,9.0,0.1,question_agency,question_agency_line_100,-1.0,5.0,8.0,25.0,20.0,0.046950088818044855,0.0006249970844183885,5
14,9,1,14,28,html-slider-response,28,1260320,2450.0,14.0,0.2,question_agency,question_agency_line_100,-6.0,11.0,8.0,25.0,22.0,0.06984467249644745,0.28963323542359715,1
10,9,1,10,68,html-slider-response,68,1416533,2523.0,9.0,0.2,question_agency,question_agency_line_100,-11.0,7.0,7.0,16.0,17.0,-0.33174092083348855,-0.01776897438049492,2
12,9,1,12,96,html-slider-response,96,1525017,4554.0,15.0,0.2,question_agency,question_agency_line_100,-5.0,7.0,6.0,23.0,23.0,-0.21554414728589688,0.14323734505777963,3
11,9,1,11,142,html-slider-response,142,1703087,2407.0,2.0,0.2,question_agency,question_agency_line_100,-18.0,10.0,9.0,32.0,26.0,0.12069694348918233,0.11812189685055012,4
13,9,1,13,179,html-slider-response,179,1849932,2742.0,14.0,0.2,question_agency,question_agency_line_100,-6.0,6.0,9.0,21.0,14.0,0.181436599301578,0.15539144383708275,5
17,9,1,17,40,html-slider-response,40,1305634,2024.0,10.0,0.3,question_agency,question_agency_line_100,-20.0,5.0,6.0,16.0,18.0,-0.2657385972147954,0.3360430337878073,1
15,9,1,15,65,html-slider-response,65,1405004,3736.0,11.0,0.3,question_agency,question_agency_line_100,-19.0,5.0,8.0,24.0,12.0,-0.4043526023880798,0.1526625288646819,2
18,9,1,18,120,html-slider-response,120,1618636,1413.0,5.0,0.3,question_agency,question_agency_line_100,-25.0,5.0,6.0,28.0,14.0,-0.2954160010775891,-0.39628664228348265,3
19,9,1,19,148,html-slider-response,148,1726233,2187.0,30.0,0.3,question_agency,question_agency_line_100,0.0,7.0,4.0,24.0,25.0,-0.0007166903375139383,0.1328654892814966,4
16,9,1,16,158,html-slider-response,158,1764320,2690.0,11.0,0.3,question_agency,question_agency_line_100,-19.0,6.0,6.0,22.0,27.0,0.005611781579710923,0.08059547443088906,5
22,9,1,22,22,html-slider-response,22,1238423,6535.0,40.0,0.4,question_agency,question_agency_line_100,0.0,9.0,7.0,22.0,23.0,-0.1428748957933221,-0.2410140773574033,1
24,9,1,24,62,html-slider-response,62,1392260,3160.0,25.0,0.4,question_agency,question_agency_line_100,-15.0,3.0,6.0,17.0,20.0,0.33922123740825866,0.11707741638342527,2
23,9,1,23,105,html-slider-response,105,1560195,2774.0,35.0,0.4,question_agency,question_agency_line_100,-5.0,4.0,6.0,15.0,21.0,0.3481430603168867,-0.08639102779538403,3
20,9,1,20,136,html-slider-response,136,1676759,2116.0,23.0,0.4,question_agency,question_agency_line_100,-17.0,9.0,7.0,36.0,23.0,0.17963655699136197,-0.02040127373528859,4
21,9,1,21,161,html-slider-response,161,1776424,3089.0,24.0,0.4,question_agency,question_agency_line_100,-16.0,11.0,8.0,19.0,20.0,0.4230557530395119,-0.12111374104290823,5
26,9,1,26,34,html-slider-response,34,1282217,1625.0,53.0,0.5,question_agency,question_agency_line_100,3.0,6.0,7.0,17.0,13.0,-0.11565639425816049,0.3157744444353562,1
25,9,1,25,86,html-slider-response,86,1487599,3225.0,38.0,0.5,question_agency,question_agency_line_100,-12.0,8.0,7.0,13.0,14.0,-0.08216759817891096,0.042747189407298415,2
28,9,1,28,114,html-slider-response,114,1595979,2094.0,24.0,0.5,question_agency,question_agency_line_100,-26.0,7.0,8.0,17.0,19.0,0.12917676538801928,0.36718827152336975,3
29,9,1,29,130,html-slider-response,130,1654636,2458.0,9.0,0.5,question_agency,question_agency_line_100,-41.0,5.0,7.0,27.0,33.0,0.345162983863402,-0.2429455597469687,4
27,9,1,27,167,html-slider-response,167,1799658,2656.0,50.0,0.5,question_agency,question_agency_line_100,0.0,6.0,6.0,14.0,17.0,-0.49270414263643075,0.28072317800033075,5
30,9,1,30,25,html-slider-response,25,1249159,1871.0,59.0,0.6,question_agency,question_agency_line_100,-1.0,6.0,6.0,19.0,18.0,0.1339341624629066,0.22203437331301032,1
33,9,1,33,71,html-slider-response,71,1429733,4196.0,21.0,0.6,question_agency,question_agency_line_100,-39.0,4.0,7.0,19.0,17.0,-0.6881732754711318,-0.09597696031832043,2
31,9,1,31,111,html-slider-response,111,1584868,3250.0,52.0,0.6,question_agency,question_agency_line_100,-8.0,7.0,7.0,28.0,25.0,-0.12492897291127657,0.009116495695709811,3
34,9,1,34,133,html-slider-response,133,1665630,1980.0,50.0,0.6,question_agency,question_agency_line_100,-10.0,2.0,5.0,30.0,28.0,0.40038632100496113,0.031943832429533255,4
32,9,1,32,170,html-slider-response,170,1812890,4220.0,34.0,0.6,question_agency,question_agency_line_100,-26.0,6.0,7.0,21.0,20.0,-0.20441463765472548,0.010785476093943248,5
37,9,1,37,37,html-slider-response,37,1294601,3375.0,70.0,0.7,question_agency,question_agency_line_100,0.0,9.0,7.0,17.0,26.0,-0.4777614949827725,-0.09320745941832564,1
38,9,1,38,74,html-slider-response,74,1440640,1902.0,29.0,0.7,question_agency,question_agency_line_100,-41.0,7.0,7.0,15.0,14.0,-0.44122364697968086,0.010620462393817472,2
39,9,1,39,117,html-slider-response,117,1608211,3221.0,74.0,0.7,question_agency,question_agency_line_100,4.0,6.0,7.0,26.0,37.0,0.4919261663479703,0.13109310575614444,3
35,9,1,35,127,html-slider-response,127,1643164,2976.0,79.0,0.7,question_agency,question_agency_line_100,9.0,6.0,8.0,26.0,19.0,0.3125218858435201,-0.17599066084770454,4
36,9,1,36,173,html-slider-response,173,1825611,3705.0,63.0,0.7,question_agency,question_agency_line_100,-7.0,7.0,5.0,17.0,18.0,-0.10765679153777065,0.12342570022256548,5
43,9,1,43,49,html-slider-response,49,1343123,2280.0,85.0,0.8,question_agency,question_agency_line_100,5.0,9.0,9.0,16.0,15.0,-0.4412492857075581,-0.12585460214224856,1
42,9,1,42,80,html-slider-response,80,1463391,2607.0,83.0,0.8,question_agency,question_agency_line_100,3.0,6.0,7.0,18.0,14.0,-0.3217528412942316,-0.048901365316560794,2
44,9,1,44,90,html-slider-response,90,1499809,2133.0,80.0,0.8,question_agency,question_agency_line_100,0.0,7.0,6.0,20.0,11.0,-0.3093336187114832,0.34468312968209625,3
40,9,1,40,139,html-slider-response,139,1691662,5891.0,78.0,0.8,question_agency,question_agency_line_100,-2.0,7.0,6.0,36.0,20.0,0.30870258494623776,0.19283838129908312,4
41,9,1,41,176,html-slider-response,176,1838173,3550.0,77.0,0.8,question_agency,question_agency_line_100,-3.0,5.0,8.0,16.0,12.0,-0.2058679459007174,-0.22096950245172856,5
45,9,1,45,31,html-slider-response,31,1271585,2260.0,90.0,0.9,question_agency,question_agency_line_100,0.0,7.0,5.0,16.0,18.0,-0.0008052693131100348,-0.20205215687371433,1
46,9,1,46,59,html-slider-response,59,1380091,1891.0,91.0,0.9,question_agency,question_agency_line_100,1.0,8.0,8.0,7.0,12.0,-0.019962727537549615,0.2977324120126202,2
48,9,1,48,108,html-slider-response,108,1572610,3409.0,84.0,0.9,question_agency,question_agency_line_100,-6.0,8.0,8.0,28.0,18.0,-0.06855952270162059,-0.10186830027621499,3
47,9,1,47,151,html-slider-response,151,1737319,2072.0,80.0,0.9,question_agency,question_agency_line_100,-10.0,5.0,5.0,25.0,26.0,0.14812075091164795,-0.14257009971733006,4
49,9,1,49,185,html-slider-response,185,1875837,4626.0,89.0,0.9,question_agency,question_agency_line_100,-1.0,7.0,6.0,12.0,16.0,-0.05355780876051757,-0.2768185351364456,5
50,9,1,50,52,html-slider-response,52,1355698,3567.0,79.0,1.0,question_agency,question_agency_line_100,-21.0,4.0,5.0,28.0,29.0,-0.11659541572060073,-0.060000106304280564,1
51,9,1,51,56,html-slider-response,56,1369195,2320.0,97.0,1.0,question_agency,question_agency_line_100,-3.0,6.0,7.0,30.0,33.0,0.15096442801722698,-0.22333696097821792,2
52,9,1,52,93,html-slider-response,93,1511447,2621.0,99.0,1.0,question_agency,question_agency_line_100,-1.0,7.0,5.0,27.0,22.0,0.20464300510007374,-0.11610972939406046,3
53,9,1,53,154,html-slider-response,154,1750287,3955.0,92.0,1.0,question_agency,question_agency_line_100,-8.0,7.0,8.0,33.0,23.0,-0.06828402963166968,-0.1588636078068651,4
54,9,1,54,188,html-slider-response,188,1887012,2166.0,100.0,1.0,question_agency,question_agency_line_100,0.0,8.0,4.0,21.0,24.0,0.10089251319230713,-0.29829150580851965,5
1,10,1,1,31,html-slider-response,31,181728,3815.0,0.0,0.0,question_agency,question_agency_line_100,0.0,8.0,8.0,13.0,8.0,0.35793327232972644,-0.18993812967535895,1
4,10,1,4,59,html-slider-response,59,299990,2756.0,0.0,0.0,question_agency,question_agency_line_100,0.0,10.0,9.0,14.0,12.0,0.05236442028065385,0.24368631196252982,2
3,10,1,3,108,html-slider-response,108,496499,2382.0,0.0,0.0,question_agency,question_agency_line_100,0.0,10.0,7.0,27.0,18.0,-0.009067945515393961,0.12713031048999454,3
2,10,1,2,136,html-slider-response,136,614042,8585.0,0.0,0.0,question_agency,question_agency_line_100,0.0,6.0,6.0,15.0,14.0,-0.34302236759633226,-0.08272620456381573,4
0,10,1,0,158,html-slider-response,158,694967,2169.0,0.0,0.0,question_agency,question_agency_line_100,0.0,7.0,5.0,14.0,9.0,-0.39863615388387574,-0.0857278410601042,5
9,10,1,9,43,html-slider-response,43,234122,2771.0,0.0,0.1,question_agency,question_agency_line_100,-10.0,6.0,8.0,19.0,3.0,0.09002915010949741,-0.11621886387883691,1
7,10,1,7,74,html-slider-response,74,362134,4764.0,5.0,0.1,question_agency,question_agency_line_100,-5.0,3.0,4.0,8.0,6.0,-0.07417074484343981,0.4677610263810064,2
5,10,1,5,105,html-slider-response,105,485104,2083.0,0.0,0.1,question_agency,question_agency_line_100,-10.0,7.0,7.0,34.0,24.0,-0.3082551216165983,-0.04777929648212209,3
6,10,1,6,154,html-slider-response,154,681591,2180.0,7.0,0.1,question_agency,question_agency_line_100,-3.0,8.0,7.0,8.0,10.0,0.3943266347461597,0.13016561049467829,4
8,10,1,8,188,html-slider-response,188,816630,4355.0,4.0,0.1,question_agency,question_agency_line_100,-6.0,10.0,11.0,8.0,20.0,-0.17787340904308951,-0.14064130094339,5
10,10,1,10,40,html-slider-response,40,222322,3518.0,10.0,0.2,question_agency,question_agency_line_100,-10.0,6.0,7.0,15.0,4.0,0.16589066799607174,-0.16769249549822052,1
12,10,1,12,80,html-slider-response,80,385809,2660.0,3.0,0.2,question_agency,question_agency_line_100,-17.0,7.0,6.0,9.0,9.0,0.06685125499432527,0.24732975078376718,2
11,10,1,11,120,html-slider-response,120,545254,3183.0,5.0,0.2,question_agency,question_agency_line_100,-15.0,11.0,8.0,18.0,15.0,0.38607256214680047,-0.45827386188562674,3
13,10,1,13,151,html-slider-response,151,670396,2352.0,15.0,0.2,question_agency,question_agency_line_100,-5.0,7.0,10.0,7.0,8.0,0.09516130720030075,0.054311942678814035,4
14,10,1,14,185,html-slider-response,185,803266,3122.0,0.0,0.2,question_agency,question_agency_line_100,-20.0,5.0,7.0,14.0,12.0,0.04889005523073258,-0.32818300251970345,5
15,10,1,15,46,html-slider-response,46,245656,2516.0,7.0,0.3,question_agency,question_agency_line_100,-23.0,6.0,7.0,15.0,8.0,0.026514722170140687,-0.1342331356807116,1
18,10,1,18,65,html-slider-response,65,324494,3629.0,20.0,0.3,question_agency,question_agency_line_100,-10.0,7.0,8.0,10.0,4.0,-0.32813397791041543,0.2074023373205117,2
19,10,1,19,117,html-slider-response,117,533058,4387.0,16.0,0.3,question_agency,question_agency_line_100,-14.0,5.0,7.0,15.0,26.0,-0.16694114037171087,0.019321616884008134,3
16,10,1,16,139,html-slider-response,139,625950,2906.0,8.0,0.3,question_agency,question_agency_line_100,-22.0,6.0,6.0,7.0,8.0,0.09021985143881532,-0.03977931367776804,4
17,10,1,17,176,html-slider-response,176,765796,4137.0,29.0,0.3,question_agency,question_agency_line_100,-1.0,10.0,10.0,20.0,6.0,0.03459289605290924,-0.06510454384733531,5
23,10,1,23,34,html-slider-response,34,196237,5499.0,0.0,0.4,question_agency,question_agency_line_100,-40.0,7.0,7.0,16.0,4.0,-0.2751083921105175,0.03948731029300986,1
21,10,1,21,71,html-slider-response,71,348363,3201.0,40.0,0.4,question_agency,question_agency_line_100,0.0,5.0,6.0,12.0,6.0,-0.5223557341776489,-0.06435988526161232,2
24,10,1,24,90,html-slider-response,90,424742,3012.0,66.0,0.4,question_agency,question_agency_line_100,26.0,5.0,7.0,10.0,8.0,0.5314899417572488,-0.1126185892240295,3
22,10,1,22,148,html-slider-response,148,659042,1861.0,80.0,0.4,question_agency,question_agency_line_100,40.0,9.0,8.0,6.0,6.0,0.6204791429833495,0.11318842608701578,4
20,10,1,20,164,html-slider-response,164,718208,2638.0,64.0,0.4,question_agency,question_agency_line_100,24.0,5.0,8.0,10.0,8.0,-0.007819989423386266,-0.06285517449578497,5
27,10,1,27,49,html-slider-response,49,258876,4206.0,10.0,0.5,question_agency,question_agency_line_100,-40.0,6.0,8.0,10.0,6.0,-0.507194792056371,0.08216997989306439,1
28,10,1,28,86,html-slider-response,86,410033,3817.0,40.0,0.5,question_agency,question_agency_line_100,-10.0,6.0,5.0,8.0,10.0,-0.4611506196246832,0.0037701285868070766,2
29,10,1,29,102,html-slider-response,102,474013,3233.0,31.0,0.5,question_agency,question_agency_line_100,-19.0,5.0,5.0,9.0,7.0,0.5122540934478068,-0.05786732487205444,3
26,10,1,26,130,html-slider-response,130,585324,6678.0,80.0,0.5,question_agency,question_agency_line_100,30.0,6.0,6.0,5.0,20.0,-0.05248003549366823,-0.03458642536520475,4
25,10,1,25,167,html-slider-response,167,729786,2569.0,60.0,0.5,question_agency,question_agency_line_100,10.0,7.0,9.0,7.0,14.0,0.160015665503763,-0.18977031138772973,5
32,10,1,32,25,html-slider-response,25,156354,5456.0,71.0,0.6,question_agency,question_agency_line_100,11.0,7.0,7.0,5.0,6.0,0.5952679956610477,-0.5859087350779274,1
33,10,1,33,83,html-slider-response,83,397204,2388.0,79.0,0.6,question_agency,question_agency_line_100,19.0,8.0,3.0,7.0,6.0,0.019015465182399733,-0.214811360124202,2
30,10,1,30,96,html-slider-response,96,448190,3375.0,86.0,0.6,question_agency,question_agency_line_100,26.0,7.0,8.0,7.0,20.0,-0.18012047375114223,0.18042898128854318,3
34,10,1,34,142,html-slider-response,142,637054,2091.0,67.0,0.6,question_agency,question_agency_line_100,7.0,6.0,7.0,9.0,6.0,-0.16092813142053083,-0.16567916119072448,4
31,10,1,31,161,html-slider-response,161,706546,2558.0,74.0,0.6,question_agency,question_agency_line_100,14.0,9.0,8.0,7.0,20.0,0.04167311049613919,0.20254689342035004,5
35,10,1,35,37,html-slider-response,37,209796,4542.0,75.0,0.7,question_agency,question_agency_line_100,5.0,5.0,8.0,6.0,11.0,-0.11267214844169815,-0.042312893071830546,1
38,10,1,38,68,html-slider-response,68,336158,2654.0,77.0,0.7,question_agency,question_agency_line_100,7.0,8.0,6.0,7.0,6.0,-0.3508721124321862,-0.43697594649897836,2
37,10,1,37,93,html-slider-response,93,435805,2051.0,90.0,0.7,question_agency,question_agency_line_100,20.0,4.0,6.0,9.0,18.0,0.490764966760454,0.040096534029178,3
39,10,1,39,145,html-slider-response,145,648176,2101.0,90.0,0.7,question_agency,question_agency_line_100,20.0,9.0,6.0,10.0,9.0,0.24945567526536108,-0.22775771228937294,4
36,10,1,36,179,html-slider-response,179,778208,3399.0,84.0,0.7,question_agency,question_agency_line_100,14.0,5.0,6.0,17.0,3.0,-0.2946003382609755,-0.3975427666271298,5
42,10,1,42,22,html-slider-response,22,141884,8397.0,96.0,0.8,question_agency,question_agency_line_100,16.0,4.0,8.0,6.0,9.0,0.2794670566308867,0.07951467699584597,1
41,10,1,41,56,html-slider-response,56,288222,4441.0,95.0,0.8,question_agency,question_agency_line_100,15.0,7.0,9.0,8.0,14.0,0.3883962683708798,0.07097576092609005,2
44,10,1,44,99,html-slider-response,99,461774,4576.0,95.0,0.8,question_agency,question_agency_line_100,15.0,5.0,5.0,5.0,12.0,-0.05845219090917829,-0.21128672059105436,3
43,10,1,43,127,html-slider-response,127,569631,2391.0,94.0,0.8,question_agency,question_agency_line_100,14.0,5.0,4.0,9.0,14.0,0.3956535317869027,0.30198228301275587,4
40,10,1,40,173,html-slider-response,173,752653,3141.0,98.0,0.8,question_agency,question_agency_line_100,18.0,7.0,8.0,16.0,10.0,-0.13900653786543146,0.14511344335097903,5
46,10,1,46,52,html-slider-response,52,269964,2078.0,97.0,0.9,question_agency,question_agency_line_100,7.0,8.0,9.0,7.0,22.0,-0.08381454486875092,0.04783033270800283,1
49,10,1,49,77,html-slider-response,77,374140,2985.0,100.0,0.9,question_agency,question_agency_line_100,10.0,5.0,7.0,9.0,16.0,0.3755273499389896,-0.059005103006843515,2
47,10,1,47,111,html-slider-response,111,508340,2826.0,100.0,0.9,question_agency,question_agency_line_100,10.0,9.0,7.0,17.0,14.0,-0.09155312559294089,-0.22894786637869025,3
48,10,1,48,133,html-slider-response,133,596440,2111.0,96.0,0.9,question_agency,question_agency_line_100,6.0,8.0,8.0,5.0,20.0,-0.23098018160664796,-0.17779416894446734,4
45,10,1,45,170,html-slider-response,170,740497,1704.0,95.0,0.9,question_agency,question_agency_line_100,5.0,9.0,6.0,8.0,19.0,-0.223242093007857,0.09922107544886428,5
50,10,1,50,28,html-slider-response,28,168901,3541.0,100.0,1.0,question_agency,question_agency_line_100,0.0,7.0,5.0,6.0,18.0,0.2519008283658658,0.21887285472416504,1
52,10,1,52,62,html-slider-response,62,311844,2828.0,100.0,1.0,question_agency,question_agency_line_100,0.0,6.0,10.0,9.0,15.0,0.15527147835942323,0.2572986790986465,2
53,10,1,53,114,html-slider-response,114,519665,2318.0,100.0,1.0,question_agency,question_agency_line_100,0.0,7.0,6.0,12.0,28.0,0.22891519749179906,0.009550045482745916,3
51,10,1,51,124,html-slider-response,124,558216,2108.0,100.0,1.0,question_agency,question_agency_line_100,0.0,6.0,7.0,13.0,20.0,-0.46798370991247157,0.010050738722466528,4
54,10,1,54,182,html-slider-response,182,791140,3928.0,100.0,1.0,question_agency,question_agency_line_100,0.0,7.0,10.0,13.0,23.0,0.2789475962040075,0.09624459334408962,5
1,11,1,1,28,html-slider-response,28,1420085,4599.0,0.0,0.0,question_agency,question_agency_line_100,0.0,8.0,6.0,6.0,6.0,0.017240656147597632,0.07565800210315919,1
0,11,1,0,59,html-slider-response,59,1568736,9955.0,14.0,0.0,question_agency,question_agency_line_100,14.0,8.0,6.0,11.0,12.0,0.26450720731072197,0.025243991842806658,2
4,11,1,4,114,html-slider-response,114,1878911,4227.0,1.0,0.0,question_agency,question_agency_line_100,1.0,7.0,4.0,4.0,6.0,-0.47372777037987374,-0.03223544170136924,3
3,11,1,3,124,html-slider-response,124,1925266,3730.0,0.0,0.0,question_agency,question_agency_line_100,0.0,2.0,6.0,9.0,5.0,-0.02457291987415413,0.434903393358056,4
2,11,1,2,161,html-slider-response,161,2093778,3497.0,0.0,0.0,question_agency,question_agency_line_100,0.0,3.0,8.0,8.0,8.0,-0.006175906539440675,0.0003343647123863322,5
8,11,1,8,43,html-slider-response,43,1490857,4483.0,3.0,0.1,question_agency,question_agency_line_100,-7.0,9.0,3.0,11.0,4.0,0.23047914801604763,0.11054544496297218,1
5,11,1,5,83,html-slider-response,83,1732673,3751.0,16.0,0.1,question_agency,question_agency_line_100,6.0,10.0,7.0,8.0,3.0,0.7003890677724585,0.0976838911333011,2
9,11,1,9,96,html-slider-response,96,1791744,4003.0,0.0,0.1,question_agency,question_agency_line_100,-10.0,8.0,4.0,8.0,7.0,-0.013346512132100499,-0.0675177362533374,3
6,11,1,6,127,html-slider-response,127,1938091,3812.0,6.0,0.1,question_agency,question_agency_line_100,-4.0,7.0,8.0,4.0,2.0,0.0742252752287079,-0.10141556259313153,4
7,11,1,7,170,html-slider-response,170,2146097,4656.0,2.0,0.1,question_agency,question_agency_line_100,-8.0,12.0,10.0,8.0,8.0,0.01985169001203463,0.21983823760104873,5
13,11,1,13,52,html-slider-response,52,1532017,4571.0,0.0,0.2,question_agency,question_agency_line_100,-20.0,6.0,7.0,6.0,14.0,-0.1726477736345222,0.42081546965182,1
11,11,1,11,77,html-slider-response,77,1706777,4424.0,0.0,0.2,question_agency,question_agency_line_100,-20.0,4.0,6.0,9.0,4.0,-0.5717636453111643,0.13976930110330768,2
14,11,1,14,102,html-slider-response,102,1819470,5549.0,20.0,0.2,question_agency,question_agency_line_100,0.0,7.0,7.0,4.0,3.0,0.6311793782785863,0.15675634262857355,3
10,11,1,10,136,html-slider-response,136,1977515,3915.0,0.0,0.2,question_agency,question_agency_line_100,-20.0,6.0,6.0,6.0,12.0,0.10826400389263327,-0.01455951213215533,4
12,11,1,12,182,html-slider-response,182,2205160,5103.0,0.0,0.2,question_agency,question_agency_line_100,-20.0,6.0,5.0,6.0,8.0,0.40311948389522645,0.007781466246069531,5
16,11,1,16,31,html-slider-response,31,1433991,4890.0,0.0,0.3,question_agency,question_agency_line_100,-30.0,8.0,11.0,22.0,6.0,-0.0014942905835449991,-0.05834833116192133,1
18,11,1,18,80,html-slider-response,80,1719911,4119.0,0.0,0.3,question_agency,question_agency_line_100,-30.0,8.0,6.0,10.0,8.0,-0.02958142606618079,-0.08369458154813512,2
15,11,1,15,111,html-slider-response,111,1865663,10063.0,19.0,0.3,question_agency,question_agency_line_100,-11.0,8.0,8.0,6.0,6.0,0.1423075028846454,0.10359764701244922,3
17,11,1,17,130,html-slider-response,130,1951790,4689.0,9.0,0.3,question_agency,question_agency_line_100,-21.0,8.0,5.0,5.0,3.0,-0.09525640818051993,0.43261895225885727,4
19,11,1,19,158,html-slider-response,158,2081261,7813.0,4.0,0.3,question_agency,question_agency_line_100,-26.0,6.0,5.0,10.0,8.0,-0.18351386652688853,-0.0635986456643599,5
21,11,1,21,46,html-slider-response,46,1504135,4270.0,0.0,0.4,question_agency,question_agency_line_100,-40.0,6.0,6.0,7.0,12.0,0.10270749755783834,0.012556215314657653,1
22,11,1,22,71,html-slider-response,71,1666232,16560.0,20.0,0.4,question_agency,question_agency_line_100,-20.0,7.0,7.0,12.0,5.0,-0.20143311406710607,-0.08851085795137008,2
24,11,1,24,93,html-slider-response,93,1778731,4541.0,9.0,0.4,question_agency,question_agency_line_100,-31.0,7.0,7.0,8.0,4.0,0.04769912005715936,-0.1028499025208031,3
23,11,1,23,154,html-slider-response,154,2062117,4285.0,3.0,0.4,question_agency,question_agency_line_100,-37.0,4.0,7.0,4.0,7.0,0.21739562664560602,-0.1837290738035266,4
20,11,1,20,167,html-slider-response,167,2132430,7011.0,19.0,0.4,question_agency,question_agency_line_100,-21.0,8.0,9.0,7.0,6.0,0.29282378287282373,-0.21450616842631878,5
28,11,1,28,37,html-slider-response,37,1461463,4592.0,68.0,0.5,question_agency,question_agency_line_100,18.0,5.0,5.0,6.0,5.0,0.5143521212213434,0.16631973709732983,1
27,11,1,27,56,html-slider-response,56,1549769,4203.0,9.0,0.5,question_agency,question_agency_line_100,-41.0,5.0,5.0,6.0,5.0,-0.3402436895489265,-0.11416208699500979,2
25,11,1,25,117,html-slider-response,117,1894409,6489.0,63.0,0.5,question_agency,question_agency_line_100,13.0,7.0,4.0,4.0,4.0,0.5486820001086365,0.5521369167535837,3
29,11,1,29,151,html-slider-response,151,2048821,4859.0,22.0,0.5,question_agency,question_agency_line_100,-28.0,5.0,8.0,8.0,4.0,0.10435560736961537,0.004738409291568435,4
26,11,1,26,188,html-slider-response,188,2233583,4575.0,30.0,0.5,question_agency,question_agency_line_100,-20.0,6.0,7.0,7.0,6.0,0.030661309967409588,0.07167220840233075,5
32,11,1,32,49,html-slider-response,49,1518438,5284.0,29.0,0.6,question_agency,question_agency_line_100,-31.0,6.0,8.0,5.0,8.0,-0.24618574834879967,0.4715360086114212,1
30,11,1,30,68,html-slider-response,68,1640641,7461.0,28.0,0.6,question_agency,question_agency_line_100,-32.0,7.0,6.0,7.0,4.0,0.46148961646312275,0.2163568426347086,2
33,11,1,33,120,html-slider-response,120,1910018,6594.0,31.0,0.6,question_agency,question_agency_line_100,-29.0,5.0,7.0,5.0,4.0,0.07863197829456939,0.11162191534832189,3
34,11,1,34,133,html-slider-response,133,1964587,3788.0,50.0,0.6,question_agency,question_agency_line_100,-10.0,8.0,7.0,4.0,5.0,0.201038935143639,0.27590702845935516,4
31,11,1,31,164,html-slider-response,164,2116395,13599.0,28.0,0.6,question_agency,question_agency_line_100,-32.0,7.0,8.0,6.0,6.0,-0.13125310148336541,0.4114537130129161,5
38,11,1,38,34,html-slider-response,34,1447863,4861.0,68.0,0.7,question_agency,question_agency_line_100,-2.0,8.0,7.0,9.0,4.0,-0.43083244143750726,-0.15232616149107758,1
39,11,1,39,74,html-slider-response,74,1693339,18097.0,40.0,0.7,question_agency,question_agency_line_100,-30.0,9.0,10.0,7.0,4.0,0.19963503706427774,0.1444990906101119,2
37,11,1,37,105,html-slider-response,105,1832490,4003.0,28.0,0.7,question_agency,question_agency_line_100,-42.0,5.0,6.0,4.0,5.0,-0.42872994635449563,-0.37147637687504675,3
35,11,1,35,148,html-slider-response,148,2034940,7325.0,43.0,0.7,question_agency,question_agency_line_100,-27.0,6.0,3.0,3.0,4.0,-0.5246678277736117,0.3344853549295956,4
36,11,1,36,179,html-slider-response,179,2191043,6734.0,59.0,0.7,question_agency,question_agency_line_100,-11.0,5.0,6.0,4.0,8.0,-0.40482979271463265,-0.31568999694288336,5
42,11,1,42,40,html-slider-response,40,1477360,6878.0,79.0,0.8,question_agency,question_agency_line_100,-1.0,6.0,9.0,4.0,7.0,0.0967651936047389,0.10618994500722331,1
43,11,1,43,62,html-slider-response,62,1598639,20894.0,79.0,0.8,question_agency,question_agency_line_100,-1.0,7.0,8.0,7.0,4.0,0.3812989359299658,-0.2929936620910976,2
44,11,1,44,108,html-slider-response,108,1846589,5084.0,87.0,0.8,question_agency,question_agency_line_100,7.0,9.0,6.0,4.0,4.0,0.22897175593283992,0.14172898052413538,3
40,11,1,40,139,html-slider-response,139,1990694,4165.0,90.0,0.8,question_agency,question_agency_line_100,10.0,8.0,5.0,5.0,4.0,0.07722629926358981,0.15504512847233498,4
41,11,1,41,185,html-slider-response,185,2219997,5824.0,83.0,0.8,question_agency,question_agency_line_100,3.0,5.0,6.0,5.0,4.0,-0.3689514645349643,0.2146992211459696,5
46,11,1,46,22,html-slider-response,22,1388122,6172.0,59.0,0.9,question_agency,question_agency_line_100,-31.0,12.0,8.0,8.0,0.0,0.15636537822251523,0.0,1
49,11,1,49,86,html-slider-response,86,1746990,5298.0,100.0,0.9,question_agency,question_agency_line_100,10.0,5.0,7.0,5.0,6.0,-0.18572678817982838,0.4166443959988911,2
47,11,1,47,90,html-slider-response,90,1765182,6080.0,100.0,0.9,question_agency,question_agency_line_100,10.0,7.0,3.0,5.0,4.0,0.49727830603280415,0.10454774111263605,3
48,11,1,48,142,html-slider-response,142,2004654,4940.0,93.0,0.9,question_agency,question_agency_line_100,3.0,9.0,8.0,4.0,4.0,0.08445057775848325,-0.14319920691840124,4
45,11,1,45,173,html-slider-response,173,2159768,4658.0,89.0,0.9,question_agency,question_agency_line_100,-1.0,7.0,8.0,5.0,4.0,-0.3990921009919933,-0.30653424701758186,5
53,11,1,53,25,html-slider-response,25,1406468,9337.0,90.0,1.0,question_agency,question_agency_line_100,-10.0,8.0,7.0,6.0,5.0,0.006722282897654566,0.30107505940559914,1
54,11,1,54,65,html-slider-response,65,1624169,16515.0,84.0,1.0,question_agency,question_agency_line_100,-16.0,6.0,5.0,4.0,3.0,0.2502571389833925,0.10649203009483675,2
50,11,1,50,99,html-slider-response,99,1804907,4150.0,100.0,1.0,question_agency,question_agency_line_100,0.0,5.0,9.0,6.0,4.0,-0.2153812990400897,-0.2682123693514956,3
51,11,1,51,145,html-slider-response,145,2018606,4940.0,100.0,1.0,question_agency,question_agency_line_100,0.0,5.0,6.0,4.0,4.0,0.3679131946905759,0.269486373370722,4
