,SubNum,Include,level_0,index,trial_type,trial_index,time_elapsed,rt,response,control_level,task_id,screen_id,scale,scale_2,difference,difference_2,Key_Release_sim_x,Key_Release_sim_y,Key_Release_p1_x,Key_Release_p1_y,Correlation_x,Correlation_y,block
0,1,1,0,28,html-slider-response,28,446597,3302.0,0.0,0.0,question_agency,question_agency_line_inverted,1.0,0.0,0.0,0.0,6.0,8.0,27.0,24.0,0.018079882903453106,-0.07858221687126589,1
5,1,1,5,65,html-slider-response,65,594367,3346.0,0.0,0.0,question_agency,question_agency_line_inverted,1.0,0.0,0.0,0.0,9.0,5.0,22.0,16.0,-0.11197239819028271,-0.2979354561925376,2
4,1,1,4,93,html-slider-response,93,707077,3553.0,0.0,0.0,question_agency,question_agency_line_inverted,1.0,0.0,0.0,0.0,10.0,5.0,44.0,32.0,-0.0067200149861352315,0.007306057079102406,3
3,1,1,3,146,html-slider-response,146,931237,3965.0,0.0,0.0,question_agency,question_agency_line,0.0,0.0,0.0,0.0,9.0,8.0,41.0,26.0,-0.07377708573474691,0.049784675691087694,4
2,1,1,2,165,html-slider-response,165,1011694,4647.0,0.0,0.0,question_agency,question_agency_line,0.0,0.0,0.0,0.0,4.0,5.0,4.0,17.0,-0.0069914581604107765,-0.2851248550111685,5
1,1,1,1,193,html-slider-response,193,1134106,4149.0,0.0,0.0,question_agency,question_agency_line,0.0,0.0,0.0,0.0,4.0,8.0,6.0,4.0,0.27672473069203035,-0.37033956637430854,1
8,1,1,8,40,html-slider-response,40,495605,4289.0,0.0,0.1,question_agency,question_agency_line_inverted,1.0,0.0,-10.0,0.0,7.0,7.0,16.0,14.0,-0.2093022006973181,0.0012203367508338712,2
11,1,1,11,74,html-slider-response,74,630687,3365.0,3.0,0.1,question_agency,question_agency_line_inverted,1.0,0.0,-7.0,0.0,8.0,10.0,10.0,3.0,0.25290280907397944,0.1144167800503836,3
10,1,1,10,96,html-slider-response,96,721846,5737.0,0.0,0.1,question_agency,question_agency_line_inverted,1.0,0.0,-10.0,0.0,7.0,7.0,13.0,16.0,0.13490444056052264,-0.3501224680880338,4
9,1,1,9,134,html-slider-response,134,878985,3038.0,0.0,0.1,question_agency,question_agency_line,0.0,0.0,-10.0,0.0,5.0,10.0,37.0,24.0,-0.31762276358473507,-0.10851140206773724,5
7,1,1,7,177,html-slider-response,177,1066624,3038.0,0.0,0.1,question_agency,question_agency_line,0.0,0.0,-10.0,0.0,8.0,6.0,4.0,4.0,0.14119156084806714,-0.1466809934231965,1
6,1,1,6,205,html-slider-response,205,1187190,4168.0,4.0,0.1,question_agency,question_agency_line,0.0,0.0,-6.0,0.0,5.0,8.0,8.0,7.0,0.4978900185052451,0.15555145461989087,2
17,1,1,17,43,html-slider-response,43,507636,3010.0,3.0,0.2,question_agency,question_agency_line_inverted,1.0,0.0,-17.0,0.0,8.0,7.0,24.0,16.0,-0.07408842502860494,0.2593572431232633,3
15,1,1,15,80,html-slider-response,80,654264,2797.0,3.0,0.2,question_agency,question_agency_line_inverted,1.0,0.0,-17.0,0.0,8.0,7.0,17.0,31.0,0.12099264631831105,-0.09794953953922943,4
12,1,1,12,120,html-slider-response,120,819876,3780.0,0.0,0.2,question_agency,question_agency_line_inverted,1.0,0.0,-20.0,0.0,3.0,6.0,47.0,35.0,-0.12310320038396037,-0.09716041558642939,5
14,1,1,14,128,html-slider-response,128,854748,2455.0,0.0,0.2,question_agency,question_agency_line,0.0,0.0,-20.0,0.0,7.0,7.0,37.0,27.0,-0.1781527346606557,-0.08892756971412258,1
13,1,1,13,162,html-slider-response,162,998004,3828.0,0.0,0.2,question_agency,question_agency_line,0.0,0.0,-20.0,0.0,5.0,4.0,12.0,18.0,0.44913578763459705,0.1550434182365104,2
16,1,1,16,223,html-slider-response,223,1270890,4270.0,0.0,0.2,question_agency,question_agency_line,0.0,0.0,-20.0,0.0,7.0,9.0,4.0,4.0,0.22936537600213008,-0.03594105226358343,3
20,1,1,20,37,html-slider-response,37,482292,3009.0,4.0,0.3,question_agency,question_agency_line_inverted,1.0,0.0,-26.0,0.0,5.0,4.0,1.0,2.0,-0.2062804766599521,-0.31083804550266936,4
22,1,1,22,59,html-slider-response,59,570767,2810.0,4.0,0.3,question_agency,question_agency_line_inverted,1.0,0.0,-26.0,0.0,4.0,6.0,32.0,4.0,-0.20060076022049475,-0.24440992470597472,5
21,1,1,21,105,html-slider-response,105,759269,4220.0,5.0,0.3,question_agency,question_agency_line_inverted,1.0,0.0,-25.0,0.0,7.0,8.0,14.0,11.0,0.2230559146029814,-0.16874858487423006,1
23,1,1,23,137,html-slider-response,137,892083,4034.0,28.0,0.3,question_agency,question_agency_line,0.0,0.0,-2.0,0.0,8.0,8.0,12.0,27.0,-0.06129419623947859,-0.04170375533911843,2
18,1,1,18,174,html-slider-response,174,1054379,4050.0,18.0,0.3,question_agency,question_agency_line,0.0,0.0,-12.0,0.0,8.0,7.0,6.0,2.0,0.4283806489735391,-0.33311008740564446,3
19,1,1,19,208,html-slider-response,208,1203847,7584.0,1.0,0.3,question_agency,question_agency_line,0.0,0.0,-29.0,0.0,4.0,6.0,5.0,2.0,0.5093820185185032,-0.19150178592845607,4
26,1,1,26,52,html-slider-response,52,542828,2314.0,4.0,0.4,question_agency,question_agency_line_inverted,1.0,0.0,-36.0,0.0,4.0,6.0,3.0,2.0,0.5691884559824492,-0.44050098116384584,5
28,1,1,28,83,html-slider-response,83,668171,4225.0,3.0,0.4,question_agency,question_agency_line_inverted,1.0,0.0,-37.0,0.0,5.0,7.0,9.0,4.0,-0.18180341557858562,-0.09896757816399875,1
25,1,1,25,102,html-slider-response,102,746014,3252.0,54.0,0.4,question_agency,question_agency_line_inverted,1.0,0.0,14.0,0.0,7.0,10.0,27.0,17.0,-0.282773060603826,0.3091384218910242,2
24,1,1,24,143,html-slider-response,143,918204,4817.0,3.0,0.4,question_agency,question_agency_line,0.0,0.0,-37.0,0.0,7.0,7.0,6.0,8.0,-0.3959054581107316,0.5543990456555777,3
27,1,1,27,186,html-slider-response,186,1105927,3347.0,1.0,0.4,question_agency,question_agency_line,0.0,0.0,-39.0,0.0,6.0,7.0,2.0,2.0,0.5059565603107973,-0.3937082894591001,4
29,1,1,29,211,html-slider-response,211,1215738,2814.0,79.0,0.4,question_agency,question_agency_line,0.0,0.0,39.0,0.0,6.0,6.0,4.0,3.0,0.31684474216826525,0.3923376602821048,5
32,1,1,32,34,html-slider-response,34,470262,3062.0,14.0,0.5,question_agency,question_agency_line_inverted,1.0,0.0,-36.0,0.0,9.0,8.0,5.0,4.0,0.1990705545577186,0.06268755849915834,1
33,1,1,33,68,html-slider-response,68,606353,2960.0,3.0,0.5,question_agency,question_agency_line_inverted,1.0,0.0,-47.0,0.0,7.0,9.0,28.0,28.0,-0.006240331828988102,-0.04772419429387386,2
35,1,1,35,108,html-slider-response,108,770708,2370.0,3.0,0.5,question_agency,question_agency_line_inverted,1.0,0.0,-47.0,0.0,9.0,9.0,42.0,4.0,-0.13545641615373866,0.11136346768046593,3
34,1,1,34,149,html-slider-response,149,945410,4669.0,7.0,0.5,question_agency,question_agency_line,0.0,0.0,-43.0,0.0,4.0,5.0,7.0,4.0,-0.11768867352090939,-0.151526800764175,4
30,1,1,30,168,html-slider-response,168,1024702,3958.0,1.0,0.5,question_agency,question_agency_line,0.0,0.0,-49.0,0.0,1.0,5.0,28.0,25.0,-0.25092590295991246,-0.25965534561067743,5
31,1,1,31,199,html-slider-response,199,1160526,3320.0,70.0,0.5,question_agency,question_agency_line,0.0,0.0,20.0,0.0,5.0,4.0,5.0,6.0,-0.32434511081583267,0.17855782834236697,1
39,1,1,39,25,html-slider-response,25,434280,2435.0,17.0,0.6,question_agency,question_agency_line_inverted,1.0,0.0,-43.0,0.0,6.0,7.0,8.0,9.0,0.1304771351069788,-0.13466081012116288,2
41,1,1,41,86,html-slider-response,86,679949,2598.0,91.0,0.6,question_agency,question_agency_line_inverted,1.0,0.0,31.0,0.0,7.0,3.0,7.0,6.0,0.30644801770526753,-0.07204856813789354,3
38,1,1,38,99,html-slider-response,99,733723,2823.0,35.0,0.6,question_agency,question_agency_line_inverted,1.0,0.0,-25.0,0.0,7.0,8.0,14.0,9.0,-0.18023376793410364,0.0633900716789746,4
40,1,1,40,152,html-slider-response,152,957478,3001.0,8.0,0.6,question_agency,question_agency_line,0.0,0.0,-52.0,0.0,6.0,6.0,6.0,3.0,-0.46985911694091526,0.27972734609049454,5
36,1,1,36,159,html-slider-response,159,985134,3416.0,33.0,0.6,question_agency,question_agency_line,0.0,0.0,-27.0,0.0,6.0,6.0,4.0,5.0,-0.3336541115543403,-0.22918477740044602,1
37,1,1,37,214,html-slider-response,214,1229056,3858.0,64.0,0.6,question_agency,question_agency_line,0.0,0.0,4.0,0.0,10.0,7.0,2.0,6.0,-2.0951746722791713e-17,0.2693625664465854,2
42,1,1,42,31,html-slider-response,31,458178,2565.0,50.0,0.7,question_agency,question_agency_line_inverted,1.0,0.0,-20.0,0.0,5.0,3.0,9.0,8.0,0.29446015546380966,-0.0005372609733864841,3
47,1,1,47,77,html-slider-response,77,642425,2716.0,51.0,0.7,question_agency,question_agency_line_inverted,1.0,0.0,-19.0,0.0,5.0,8.0,10.0,9.0,-0.10424962134223857,-0.06611242999278498,4
44,1,1,44,111,html-slider-response,111,783053,3027.0,18.0,0.7,question_agency,question_agency_line_inverted,1.0,0.0,-52.0,0.0,6.0,5.0,4.0,3.0,-0.49300941772649953,-0.5730238522719339,5
43,1,1,43,125,html-slider-response,125,843171,2407.0,82.0,0.7,question_agency,question_agency_line,0.0,0.0,12.0,0.0,8.0,6.0,6.0,3.0,0.018237191678407684,0.040409930373285156,1
45,1,1,45,189,html-slider-response,189,1119176,3046.0,83.0,0.7,question_agency,question_agency_line,0.0,0.0,13.0,0.0,6.0,8.0,1.0,6.0,0.1487366961920641,0.34272338960142157,2
46,1,1,46,202,html-slider-response,202,1173943,4342.0,73.0,0.7,question_agency,question_agency_line,0.0,0.0,3.0,0.0,6.0,6.0,4.0,3.0,-0.007958714012775644,0.046967290587353154,3
51,1,1,51,49,html-slider-response,49,531495,2817.0,77.0,0.8,question_agency,question_agency_line_inverted,1.0,0.0,-3.0,0.0,8.0,6.0,11.0,9.0,0.13526500848345618,-0.15598649739283665,4
48,1,1,48,62,html-slider-response,62,581964,2176.0,84.0,0.8,question_agency,question_agency_line_inverted,1.0,0.0,4.0,0.0,6.0,8.0,7.0,4.0,0.17640877499700916,-0.41058175025177235,5
52,1,1,52,90,html-slider-response,90,694473,3409.0,89.0,0.8,question_agency,question_agency_line_inverted,1.0,0.0,9.0,0.0,6.0,7.0,4.0,0.0,-0.13313546807626955,0.0,1
53,1,1,53,131,html-slider-response,131,866843,3058.0,81.0,0.8,question_agency,question_agency_line,0.0,0.0,1.0,0.0,5.0,10.0,5.0,2.0,0.6082127551531774,-0.3006621777123854,2
49,1,1,49,171,html-slider-response,171,1040005,4419.0,84.0,0.8,question_agency,question_agency_line,0.0,0.0,4.0,0.0,8.0,8.0,4.0,0.0,0.60723096957412,0.0,3
50,1,1,50,196,html-slider-response,196,1147520,4085.0,79.0,0.8,question_agency,question_agency_line,0.0,0.0,-1.0,0.0,6.0,5.0,5.0,1.0,-0.5198767893065523,0.23514124228347422,4
55,1,1,55,22,html-slider-response,22,422825,4676.0,80.0,0.9,question_agency,question_agency_line_inverted,1.0,0.0,-10.0,0.0,3.0,9.0,7.0,8.0,0.5424042629515353,0.3121688591579683,5
57,1,1,57,71,html-slider-response,71,618293,2916.0,85.0,0.9,question_agency,question_agency_line_inverted,1.0,0.0,-5.0,0.0,3.0,8.0,5.0,8.0,-0.5258161453162966,0.09040577810327476,1
58,1,1,58,117,html-slider-response,117,806994,2715.0,82.0,0.9,question_agency,question_agency_line_inverted,1.0,0.0,-8.0,0.0,8.0,8.0,6.0,3.0,-0.307860049181655,0.37543243418945427,2
56,1,1,56,155,html-slider-response,155,970988,3672.0,82.0,0.9,question_agency,question_agency_line,0.0,0.0,-8.0,0.0,7.0,8.0,5.0,2.0,-0.44866197108170086,-0.37935209634902406,3
59,1,1,59,183,html-slider-response,183,1093316,4464.0,95.0,0.9,question_agency,question_agency_line,0.0,0.0,5.0,0.0,7.0,5.0,1.0,6.0,0.06977696939100403,0.5037307452976926,4
54,1,1,54,217,html-slider-response,217,1244815,4554.0,81.0,0.9,question_agency,question_agency_line,0.0,0.0,-9.0,0.0,5.0,5.0,6.0,3.0,-0.3980324611627473,0.43161323257190976,5
62,1,1,62,46,html-slider-response,46,519653,2980.0,100.0,1.0,question_agency,question_agency_line_inverted,1.0,0.0,0.0,0.0,6.0,5.0,37.0,34.0,0.09556004025616788,-0.13402334769453889,1
65,1,1,65,56,html-slider-response,56,558895,2487.0,100.0,1.0,question_agency,question_agency_line_inverted,1.0,0.0,0.0,0.0,4.0,8.0,13.0,10.0,-0.34042157180445964,0.22343475485332914,2
61,1,1,61,114,html-slider-response,114,795130,2991.0,100.0,1.0,question_agency,question_agency_line_inverted,1.0,0.0,0.0,0.0,8.0,9.0,7.0,4.0,-0.38619020453010255,0.05154729494013024,3
63,1,1,63,140,html-slider-response,140,904319,3075.0,100.0,1.0,question_agency,question_agency_line,0.0,0.0,0.0,0.0,8.0,4.0,6.0,4.0,-0.29136590646798594,0.4611079903646584,4
60,1,1,60,180,html-slider-response,180,1079817,4112.0,100.0,1.0,question_agency,question_agency_line,0.0,0.0,0.0,0.0,9.0,8.0,5.0,2.0,-0.02707243444689784,-0.02439792792248878,5
64,1,1,64,220,html-slider-response,220,1257554,2974.0,100.0,1.0,question_agency,question_agency_line,0.0,0.0,0.0,0.0,6.0,6.0,4.0,0.0,0.6383222783555716,0.0,1
1,2,1,1,25,html-slider-response,25,113826,3840.0,1.0,0.0,question_agency,question_agency_line,0.0,0.0,1.0,0.0,5.0,5.0,6.0,5.0,0.0486017437311716,-0.11647918991366278,1
3,2,1,3,71,html-slider-response,71,320354,4549.0,2.0,0.0,question_agency,question_agency_line,0.0,0.0,2.0,0.0,7.0,8.0,11.0,8.0,-0.0037233004763773192,0.07234643562731548,2
2,2,1,2,114,html-slider-response,114,543793,7436.0,7.0,0.0,question_agency,question_agency_line,0.0,0.0,7.0,0.0,9.0,7.0,4.0,11.0,-0.005464460845097521,-0.1967757568162784,3
5,2,1,5,146,html-slider-response,146,711559,10112.0,0.0,0.0,question_agency,question_agency_line_inverted,1.0,0.0,0.0,0.0,5.0,7.0,15.0,8.0,-0.36726324940271926,-0.16294926485907915,4
0,2,1,0,162,html-slider-response,162,797909,7263.0,47.0,0.0,question_agency,question_agency_line_inverted,1.0,0.0,47.0,0.0,9.0,7.0,7.0,6.0,-0.014940559368883865,0.2724893685928537,5
4,2,1,4,208,html-slider-response,208,1031072,5960.0,1.0,0.0,question_agency,question_agency_line_inverted,1.0,0.0,1.0,0.0,8.0,5.0,4.0,3.0,0.3060059973432862,-0.10171472798053473,1
11,2,1,11,46,html-slider-response,46,208688,3830.0,31.0,0.1,question_agency,question_agency_line,0.0,0.0,21.0,0.0,7.0,7.0,4.0,5.0,0.3833794211189764,-0.14087043635390167,2
8,2,1,8,83,html-slider-response,83,377686,5991.0,2.0,0.1,question_agency,question_agency_line,0.0,0.0,-8.0,0.0,7.0,8.0,8.0,6.0,0.18502965062339838,0.31626327211737415,3
6,2,1,6,117,html-slider-response,117,556337,3535.0,2.0,0.1,question_agency,question_agency_line,0.0,0.0,-8.0,0.0,8.0,6.0,10.0,5.0,-0.12331341173425353,0.23695767815263863,4
7,2,1,7,128,html-slider-response,128,617157,3604.0,5.0,0.1,question_agency,question_agency_line_inverted,1.0,0.0,-5.0,0.0,8.0,8.0,11.0,7.0,0.2396513433730018,-0.04473156712368671,5
9,2,1,9,189,html-slider-response,189,938669,4829.0,3.0,0.1,question_agency,question_agency_line_inverted,1.0,0.0,-7.0,0.0,7.0,7.0,6.0,1.0,-0.10164074166362823,0.1490644771615571,1
10,2,1,10,211,html-slider-response,211,1043873,3785.0,0.0,0.1,question_agency,question_agency_line_inverted,1.0,0.0,-10.0,0.0,7.0,9.0,9.0,4.0,0.28007853026735496,0.2786126028139827,2
16,2,1,16,28,html-slider-response,28,126638,3795.0,4.0,0.2,question_agency,question_agency_line,0.0,0.0,-16.0,0.0,8.0,8.0,9.0,6.0,-0.18488783182793697,0.096531489817045,3
13,2,1,13,86,html-slider-response,86,390834,4138.0,5.0,0.2,question_agency,question_agency_line,0.0,0.0,-15.0,0.0,4.0,6.0,4.0,10.0,0.3792478814840474,-0.09533320210084882,4
17,2,1,17,120,html-slider-response,120,569637,4286.0,2.0,0.2,question_agency,question_agency_line,0.0,0.0,-18.0,0.0,6.0,8.0,8.0,8.0,-0.06152549934775291,-0.16802445620380435,5
14,2,1,14,149,html-slider-response,149,730364,9799.0,3.0,0.2,question_agency,question_agency_line_inverted,1.0,0.0,-17.0,0.0,10.0,5.0,6.0,7.0,0.36577215954221765,-3.470362709900595e-05,1
12,2,1,12,165,html-slider-response,165,816665,9747.0,15.0,0.2,question_agency,question_agency_line_inverted,1.0,0.0,-5.0,0.0,7.0,4.0,8.0,7.0,0.26425324112954157,0.1580450548839748,2
15,2,1,15,196,html-slider-response,196,970504,4550.0,20.0,0.2,question_agency,question_agency_line_inverted,1.0,0.0,0.0,0.0,6.0,6.0,4.0,5.0,-0.10042972440413694,-0.2841773215408886,3
22,2,1,22,49,html-slider-response,49,224224,6522.0,45.0,0.3,question_agency,question_agency_line,0.0,0.0,15.0,0.0,11.0,6.0,6.0,8.0,-0.0440556184722147,0.06574587339894579,4
23,2,1,23,68,html-slider-response,68,306798,5194.0,7.0,0.3,question_agency,question_agency_line,0.0,0.0,-23.0,0.0,4.0,7.0,10.0,4.0,0.02403457708222789,-0.3059350706378193,5
20,2,1,20,93,html-slider-response,93,419757,4372.0,5.0,0.3,question_agency,question_agency_line,0.0,0.0,-25.0,0.0,4.0,11.0,8.0,7.0,-0.5386002089894036,0.252770161323733,1
18,2,1,18,155,html-slider-response,155,763828,4870.0,2.0,0.3,question_agency,question_agency_line_inverted,1.0,0.0,-28.0,0.0,7.0,5.0,8.0,9.0,0.014103762898098301,-0.27528016134821287,2
19,2,1,19,186,html-slider-response,186,924823,5194.0,52.0,0.3,question_agency,question_agency_line_inverted,1.0,0.0,22.0,0.0,10.0,7.0,9.0,4.0,-0.5212408649965639,0.49564666606411883,3
21,2,1,21,223,html-slider-response,223,1099931,5953.0,76.0,0.3,question_agency,question_agency_line_inverted,1.0,0.0,46.0,0.0,4.0,6.0,5.0,4.0,0.10060894490958615,0.2268815259034934,4
24,2,1,24,22,html-slider-response,22,100970,5189.0,20.0,0.4,question_agency,question_agency_line,0.0,0.0,-20.0,0.0,7.0,9.0,5.0,4.0,0.20730367061053512,0.032352516208025775,5
27,2,1,27,74,html-slider-response,74,333146,3782.0,23.0,0.4,question_agency,question_agency_line,0.0,0.0,-17.0,0.0,9.0,9.0,14.0,5.0,-0.11462413998155392,0.03811414432369928,1
26,2,1,26,111,html-slider-response,111,527347,3510.0,29.0,0.4,question_agency,question_agency_line,0.0,0.0,-11.0,0.0,6.0,9.0,11.0,4.0,-0.32264913826145425,0.35702733529190556,2
28,2,1,28,131,html-slider-response,131,630394,4229.0,3.0,0.4,question_agency,question_agency_line_inverted,1.0,0.0,-37.0,0.0,7.0,7.0,8.0,6.0,-0.4701844611908532,-0.013100153345417651,3
25,2,1,25,168,html-slider-response,168,829616,3942.0,9.0,0.4,question_agency,question_agency_line_inverted,1.0,0.0,-31.0,0.0,6.0,9.0,11.0,8.0,0.42265153395158483,0.13210132283533063,4
29,2,1,29,193,html-slider-response,193,956946,7045.0,44.0,0.4,question_agency,question_agency_line_inverted,1.0,0.0,4.0,0.0,8.0,11.0,6.0,7.0,0.21192466393599882,-0.1123888797132908,5
35,2,1,35,40,html-slider-response,40,178662,5636.0,4.0,0.5,question_agency,question_agency_line,0.0,0.0,-46.0,0.0,5.0,9.0,8.0,1.0,0.12712917520051725,-0.09623611650903216,1
30,2,1,30,77,html-slider-response,77,348403,6247.0,21.0,0.5,question_agency,question_agency_line,0.0,0.0,-29.0,0.0,10.0,8.0,4.0,27.0,0.3235641793445296,-0.11635772268527972,2
32,2,1,32,102,html-slider-response,102,459598,4677.0,32.0,0.5,question_agency,question_agency_line,0.0,0.0,-18.0,0.0,7.0,7.0,12.0,4.0,-0.06257916564745108,-0.3712163715321845,3
34,2,1,34,152,html-slider-response,152,749938,10569.0,12.0,0.5,question_agency,question_agency_line_inverted,1.0,0.0,-38.0,0.0,5.0,6.0,13.0,6.0,-0.42285888198309424,0.1504039144800582,4
31,2,1,31,171,html-slider-response,171,852049,13429.0,15.0,0.5,question_agency,question_agency_line_inverted,1.0,0.0,-35.0,0.0,8.0,7.0,10.0,6.0,-0.006800123972461916,0.16451880305374023,5
33,2,1,33,205,html-slider-response,205,1016105,5574.0,77.0,0.5,question_agency,question_agency_line_inverted,1.0,0.0,27.0,0.0,7.0,7.0,5.0,6.0,-0.5681318851373165,0.06110952573437706,1
40,2,1,40,31,html-slider-response,31,138791,3147.0,79.0,0.6,question_agency,question_agency_line,0.0,0.0,19.0,0.0,7.0,4.0,5.0,6.0,0.2668231053801956,0.2544580620575121,2
37,2,1,37,59,html-slider-response,59,265980,3842.0,67.0,0.6,question_agency,question_agency_line,0.0,0.0,7.0,0.0,5.0,5.0,5.0,5.0,0.03786866346627352,0.05120049520861508,3
41,2,1,41,99,html-slider-response,99,445914,3322.0,88.0,0.6,question_agency,question_agency_line,0.0,0.0,28.0,0.0,8.0,5.0,10.0,7.0,0.07615804134335673,-0.16066210970057881,4
38,2,1,38,134,html-slider-response,134,646289,6890.0,62.0,0.6,question_agency,question_agency_line_inverted,1.0,0.0,2.0,0.0,2.0,5.0,11.0,8.0,-0.05923332224837602,0.040162030080390584,5
36,2,1,36,159,html-slider-response,159,781639,7022.0,95.0,0.6,question_agency,question_agency_line_inverted,1.0,0.0,35.0,0.0,5.0,4.0,10.0,7.0,-0.16014927826108605,-0.044409406318197654,1
39,2,1,39,202,html-slider-response,202,1001523,5828.0,82.0,0.6,question_agency,question_agency_line_inverted,1.0,0.0,22.0,0.0,7.0,6.0,6.0,7.0,0.362206102119245,0.13066297582037287,2
44,2,1,44,52,html-slider-response,52,237842,4600.0,85.0,0.7,question_agency,question_agency_line,0.0,0.0,15.0,0.0,7.0,6.0,6.0,7.0,0.2807394259751203,0.5833072413005603,3
42,2,1,42,62,html-slider-response,62,279758,4767.0,77.0,0.7,question_agency,question_agency_line,0.0,0.0,7.0,0.0,6.0,6.0,8.0,7.0,0.41212628412444796,-0.4119404166500123,4
45,2,1,45,96,html-slider-response,96,433575,4809.0,96.0,0.7,question_agency,question_agency_line,0.0,0.0,26.0,0.0,7.0,8.0,16.0,6.0,0.165724126248014,0.2767853849937673,5
46,2,1,46,140,html-slider-response,140,677023,7422.0,92.0,0.7,question_agency,question_agency_line_inverted,1.0,0.0,22.0,0.0,7.0,4.0,10.0,8.0,-0.27127485808769347,-0.4254499361307482,1
47,2,1,47,180,html-slider-response,180,897145,3587.0,95.0,0.7,question_agency,question_agency_line_inverted,1.0,0.0,25.0,0.0,8.0,8.0,16.0,9.0,0.18659284440287074,0.1314668171477482,2
43,2,1,43,199,html-slider-response,199,986687,7173.0,86.0,0.7,question_agency,question_agency_line_inverted,1.0,0.0,16.0,0.0,5.0,9.0,10.0,8.0,0.11899964447792225,0.2847370155103564,3
49,2,1,49,43,html-slider-response,43,195843,8175.0,90.0,0.8,question_agency,question_agency_line,0.0,0.0,10.0,0.0,7.0,6.0,4.0,12.0,-0.18804202451373703,0.004603242981842416,4
53,2,1,53,65,html-slider-response,65,292593,3826.0,76.0,0.8,question_agency,question_agency_line,0.0,0.0,-4.0,0.0,8.0,7.0,9.0,4.0,0.1135798977164325,0.06873168386546705,5
51,2,1,51,90,html-slider-response,90,406373,3411.0,92.0,0.8,question_agency,question_agency_line,0.0,0.0,12.0,0.0,4.0,3.0,12.0,11.0,0.027510107204230746,0.17963091855467936,1
52,2,1,52,143,html-slider-response,143,692437,6403.0,92.0,0.8,question_agency,question_agency_line_inverted,1.0,0.0,12.0,0.0,6.0,6.0,10.0,8.0,0.00681509629060048,-0.27568797914698484,2
48,2,1,48,183,html-slider-response,183,910622,4469.0,95.0,0.8,question_agency,question_agency_line_inverted,1.0,0.0,15.0,0.0,5.0,7.0,18.0,8.0,0.13560059351499343,0.07349274576329441,3
50,2,1,50,214,html-slider-response,214,1057852,4972.0,98.0,0.8,question_agency,question_agency_line_inverted,1.0,0.0,18.0,0.0,7.0,6.0,8.0,7.0,0.04295260174913409,-0.10707907906559512,4
55,2,1,55,34,html-slider-response,34,151676,3876.0,100.0,0.9,question_agency,question_agency_line,0.0,0.0,10.0,0.0,7.0,10.0,9.0,8.0,0.04781937051913818,0.14871381848410598,5
59,2,1,59,56,html-slider-response,56,253130,3892.0,97.0,0.9,question_agency,question_agency_line,0.0,0.0,7.0,0.0,7.0,8.0,8.0,4.0,0.5335760703918014,0.024889987877325832,1
56,2,1,56,105,html-slider-response,105,472007,3393.0,98.0,0.9,question_agency,question_agency_line,0.0,0.0,8.0,0.0,6.0,8.0,8.0,6.0,-0.3890489092532357,0.2201187713010284,2
54,2,1,54,125,html-slider-response,125,604542,5441.0,98.0,0.9,question_agency,question_agency_line_inverted,1.0,0.0,8.0,0.0,9.0,5.0,10.0,8.0,0.056378398852200286,0.25687039283918944,3
58,2,1,58,177,html-slider-response,177,884542,10108.0,99.0,0.9,question_agency,question_agency_line_inverted,1.0,0.0,9.0,0.0,8.0,6.0,8.0,6.0,0.25435105101016797,0.5097492033056562,4
57,2,1,57,217,html-slider-response,217,1071381,4523.0,97.0,0.9,question_agency,question_agency_line_inverted,1.0,0.0,7.0,0.0,6.0,6.0,9.0,10.0,-0.11968851732443005,0.08092854442513042,5
63,2,1,63,37,html-slider-response,37,164018,3337.0,100.0,1.0,question_agency,question_agency_line,0.0,0.0,0.0,0.0,8.0,7.0,7.0,4.0,-0.17267206337721447,-0.2887772255504513,1
61,2,1,61,80,html-slider-response,80,362684,5264.0,100.0,1.0,question_agency,question_agency_line,0.0,0.0,0.0,0.0,6.0,5.0,11.0,6.0,-0.05205384976773053,-0.5342836357425511,2
65,2,1,65,108,html-slider-response,108,514830,33818.0,99.0,1.0,question_agency,question_agency_line,0.0,0.0,-1.0,0.0,6.0,6.0,8.0,4.0,0.3342230554909691,0.46718012231508876,3
62,2,1,62,137,html-slider-response,137,660592,5295.0,100.0,1.0,question_agency,question_agency_line_inverted,1.0,0.0,0.0,0.0,8.0,9.0,10.0,8.0,0.009052975557517103,-0.23659622085962287,4
60,2,1,60,174,html-slider-response,174,865424,4367.0,100.0,1.0,question_agency,question_agency_line_inverted,1.0,0.0,0.0,0.0,6.0,5.0,10.0,10.0,-0.029900926220895248,-0.30344162252484286,5
64,2,1,64,220,html-slider-response,220,1084963,4573.0,100.0,1.0,question_agency,question_agency_line_inverted,1.0,0.0,0.0,0.0,9.0,9.0,8.0,8.0,0.3791475298755333,0.11745126536694761,1
0,3,1,0,25,html-slider-response,25,116039,6619.0,0.0,0.0,question_agency,question_agency_line,0.0,0.0,0.0,0.0,6.0,9.0,18.0,23.0,-0.20926266584451717,-0.26350692621708205,1
5,3,1,5,59,html-slider-response,59,282105,3324.0,26.0,0.0,question_agency,question_agency_line,0.0,0.0,26.0,0.0,5.0,5.0,33.0,21.0,-0.05858558615451431,-0.2180946769721688,2
3,3,1,3,90,html-slider-response,90,420064,3873.0,22.0,0.0,question_agency,question_agency_line,0.0,0.0,22.0,0.0,5.0,7.0,35.0,48.0,-0.39181341776469497,-0.020438043417958032,3
1,3,1,1,128,html-slider-response,128,632678,2949.0,13.0,0.0,question_agency,question_agency_line_inverted,1.0,0.0,13.0,0.0,6.0,10.0,10.0,17.0,0.5467259395152949,0.20939946158583955,4
2,3,1,2,165,html-slider-response,165,783373,3551.0,18.0,0.0,question_agency,question_agency_line_inverted,1.0,0.0,18.0,0.0,11.0,10.0,15.0,25.0,-0.11654486549095985,-0.012496943303382795,5
4,3,1,4,199,html-slider-response,199,952309,3444.0,15.0,0.0,question_agency,question_agency_line_inverted,1.0,0.0,15.0,0.0,9.0,9.0,9.0,13.0,0.3049720314795741,0.2823252804215312,1
7,3,1,7,28,html-slider-response,28,127873,2820.0,10.0,0.1,question_agency,question_agency_line,0.0,0.0,0.0,0.0,7.0,8.0,19.0,12.0,-0.0731549880972216,0.03859764073394124,2
10,3,1,10,71,html-slider-response,71,333659,4291.0,25.0,0.1,question_agency,question_agency_line,0.0,0.0,15.0,0.0,6.0,4.0,19.0,23.0,0.13047514143492878,-0.24873702972327905,3
6,3,1,6,120,html-slider-response,120,547724,3448.0,34.0,0.1,question_agency,question_agency_line,0.0,0.0,24.0,0.0,6.0,6.0,9.0,21.0,0.09998566918530732,-0.19477056316192776,4
8,3,1,8,131,html-slider-response,131,646456,5433.0,12.0,0.1,question_agency,question_agency_line_inverted,1.0,0.0,2.0,0.0,8.0,5.0,14.0,17.0,-0.0001350742694169644,0.11477108659468191,5
9,3,1,9,162,html-slider-response,162,770806,5574.0,13.0,0.1,question_agency,question_agency_line_inverted,1.0,0.0,3.0,0.0,8.0,6.0,5.0,19.0,0.014749735760554534,-0.04156511103134215,1
11,3,1,11,193,html-slider-response,193,928622,32064.0,16.0,0.1,question_agency,question_agency_line_inverted,1.0,0.0,6.0,0.0,10.0,11.0,16.0,31.0,-0.02341846989454054,0.3726648659065361,2
17,3,1,17,34,html-slider-response,34,154553,5126.0,15.0,0.2,question_agency,question_agency_line,0.0,0.0,-5.0,0.0,6.0,6.0,25.0,31.0,-0.06264189078583528,0.392204697540329,3
13,3,1,13,83,html-slider-response,83,394953,4668.0,39.0,0.2,question_agency,question_agency_line,0.0,0.0,19.0,0.0,6.0,8.0,4.0,22.0,-0.17655039884882207,-0.02380337975205084,4
12,3,1,12,99,html-slider-response,99,460620,6279.0,46.0,0.2,question_agency,question_agency_line,0.0,0.0,26.0,0.0,6.0,6.0,3.0,9.0,0.11016940073425051,-0.2526664497301941,5
15,3,1,15,146,html-slider-response,146,706587,3412.0,14.0,0.2,question_agency,question_agency_line_inverted,1.0,0.0,-6.0,0.0,7.0,6.0,15.0,22.0,-0.08987656579407063,-0.3964635314394895,1
14,3,1,14,186,html-slider-response,186,873250,2400.0,16.0,0.2,question_agency,question_agency_line_inverted,1.0,0.0,-4.0,0.0,7.0,7.0,14.0,21.0,0.0030077555761395215,-0.2761608294282854,2
16,3,1,16,217,html-slider-response,217,1039908,16433.0,7.0,0.2,question_agency,question_agency_line_inverted,1.0,0.0,-13.0,0.0,8.0,6.0,16.0,19.0,0.270003597190292,-0.09208253307428022,3
23,3,1,23,31,html-slider-response,31,140415,3529.0,22.0,0.3,question_agency,question_agency_line,0.0,0.0,-8.0,0.0,7.0,7.0,23.0,28.0,-0.06777518397146896,-0.02197472610046932,4
18,3,1,18,77,html-slider-response,77,360566,2948.0,26.0,0.3,question_agency,question_agency_line,0.0,0.0,-4.0,0.0,6.0,6.0,7.0,7.0,-0.447001674560521,0.04949144411975618,5
22,3,1,22,96,html-slider-response,96,445335,3091.0,37.0,0.3,question_agency,question_agency_line,0.0,0.0,7.0,0.0,8.0,8.0,4.0,11.0,-0.051266596403694666,0.00709161936292439,1
20,3,1,20,152,html-slider-response,152,731898,3511.0,9.0,0.3,question_agency,question_agency_line_inverted,1.0,0.0,-21.0,0.0,6.0,9.0,11.0,23.0,0.19409747972177954,0.0702748714719167,2
21,3,1,21,177,html-slider-response,177,836119,6183.0,14.0,0.3,question_agency,question_agency_line_inverted,1.0,0.0,-16.0,0.0,9.0,7.0,5.0,19.0,-0.1090505867025824,0.26765754996375635,3
19,3,1,19,205,html-slider-response,205,975948,4167.0,16.0,0.3,question_agency,question_agency_line_inverted,1.0,0.0,-14.0,0.0,7.0,8.0,9.0,19.0,0.1607892950145264,0.18675729853126458,4
24,3,1,24,52,html-slider-response,52,240158,7708.0,53.0,0.4,question_agency,question_agency_line,0.0,0.0,13.0,0.0,6.0,7.0,3.0,11.0,0.5292970608948077,0.11754450761588553,5
26,3,1,26,86,html-slider-response,86,406525,2562.0,32.0,0.4,question_agency,question_agency_line,0.0,0.0,-8.0,0.0,7.0,9.0,8.0,19.0,0.3403717722389437,0.05784567014709215,1
29,3,1,29,114,html-slider-response,114,523145,3535.0,21.0,0.4,question_agency,question_agency_line,0.0,0.0,-19.0,0.0,7.0,9.0,12.0,32.0,-0.22979592647095895,-0.3011518289882392,2
25,3,1,25,137,html-slider-response,137,670798,3687.0,16.0,0.4,question_agency,question_agency_line_inverted,1.0,0.0,-24.0,0.0,5.0,7.0,4.0,9.0,-0.12735919841971602,-0.46924697977403457,3
28,3,1,28,174,html-slider-response,174,820922,3719.0,14.0,0.4,question_agency,question_agency_line_inverted,1.0,0.0,-26.0,0.0,8.0,7.0,5.0,15.0,0.14118998053537277,-0.1269776392267902,4
27,3,1,27,211,html-slider-response,211,1001235,4433.0,8.0,0.4,question_agency,question_agency_line_inverted,1.0,0.0,-32.0,0.0,10.0,6.0,13.0,15.0,0.4159157340520632,-0.2909285671587308,5
32,3,1,32,40,html-slider-response,40,184332,8104.0,40.0,0.5,question_agency,question_agency_line,0.0,0.0,-10.0,0.0,6.0,5.0,19.0,33.0,-0.5025955460639564,-0.17594283182554596,1
35,3,1,35,80,html-slider-response,80,381277,11700.0,52.0,0.5,question_agency,question_agency_line,0.0,0.0,2.0,0.0,6.0,6.0,7.0,15.0,-0.008958190069348943,-0.24778229341059746,2
33,3,1,33,111,html-slider-response,111,510598,4215.0,30.0,0.5,question_agency,question_agency_line,0.0,0.0,-20.0,0.0,6.0,6.0,12.0,11.0,-0.05236725434115244,-0.2087279567402017,3
31,3,1,31,125,html-slider-response,125,620724,6322.0,32.0,0.5,question_agency,question_agency_line_inverted,1.0,0.0,-18.0,0.0,6.0,8.0,8.0,15.0,-0.2217424492054351,-0.22619847079818958,4
34,3,1,34,189,html-slider-response,189,886469,4211.0,14.0,0.5,question_agency,question_agency_line_inverted,1.0,0.0,-36.0,0.0,6.0,6.0,12.0,25.0,-0.2793206927146495,-0.1382457853555492,5
30,3,1,30,196,html-slider-response,196,940108,2474.0,15.0,0.5,question_agency,question_agency_line_inverted,1.0,0.0,-35.0,0.0,5.0,7.0,9.0,19.0,0.24991570414093572,-0.18714936191238948,1
39,3,1,39,22,html-slider-response,22,100415,3593.0,22.0,0.6,question_agency,question_agency_line,0.0,0.0,-38.0,0.0,6.0,8.0,5.0,21.0,0.07444286337129634,0.21262948972008103,2
40,3,1,40,68,html-slider-response,68,320362,4891.0,62.0,0.6,question_agency,question_agency_line,0.0,0.0,2.0,0.0,8.0,9.0,11.0,17.0,0.200984040837598,0.40891938212469064,3
41,3,1,41,93,html-slider-response,93,433231,4162.0,31.0,0.6,question_agency,question_agency_line,0.0,0.0,-29.0,0.0,7.0,8.0,15.0,12.0,-0.17818426110402893,-0.3018201297731092,4
38,3,1,38,155,html-slider-response,155,743181,2619.0,16.0,0.6,question_agency,question_agency_line_inverted,1.0,0.0,-44.0,0.0,9.0,5.0,9.0,12.0,0.2593035827201945,0.3553933265191292,5
36,3,1,36,159,html-slider-response,159,756227,2857.0,13.0,0.6,question_agency,question_agency_line_inverted,1.0,0.0,-47.0,0.0,5.0,6.0,6.0,22.0,-0.3165442040652634,-0.21616813588090483,1
37,3,1,37,208,html-slider-response,208,987793,3149.0,13.0,0.6,question_agency,question_agency_line_inverted,1.0,0.0,-47.0,0.0,9.0,10.0,10.0,17.0,-0.03545878382825551,0.09805629389572974,2
43,3,1,43,37,html-slider-response,37,167221,3663.0,50.0,0.7,question_agency,question_agency_line,0.0,0.0,-20.0,0.0,4.0,5.0,5.0,31.0,-0.15615345062399766,0.09221372119473564,3
44,3,1,44,74,html-slider-response,74,348612,5946.0,56.0,0.7,question_agency,question_agency_line,0.0,0.0,-14.0,0.0,8.0,6.0,8.0,13.0,-0.20652077954126188,-0.27544899813745627,4
47,3,1,47,108,html-slider-response,108,497732,3543.0,64.0,0.7,question_agency,question_agency_line,0.0,0.0,-6.0,0.0,8.0,5.0,6.0,15.0,-0.07407004311001782,-0.37302046613256057,5
42,3,1,42,140,html-slider-response,140,682370,2566.0,16.0,0.7,question_agency,question_agency_line_inverted,1.0,0.0,-54.0,0.0,8.0,7.0,9.0,11.0,0.2905470094990468,-0.399363349574969,1
45,3,1,45,183,html-slider-response,183,861837,3514.0,74.0,0.7,question_agency,question_agency_line_inverted,1.0,0.0,4.0,0.0,8.0,7.0,10.0,16.0,-0.058709778421910275,-0.04649800734476023,2
46,3,1,46,223,html-slider-response,223,1066455,4049.0,61.0,0.7,question_agency,question_agency_line_inverted,1.0,0.0,-9.0,0.0,11.0,6.0,4.0,20.0,0.027824540841683,-0.26265002236901736,3
50,3,1,50,46,html-slider-response,46,208624,3720.0,80.0,0.8,question_agency,question_agency_line,0.0,0.0,0.0,0.0,10.0,11.0,9.0,14.0,-0.0027129890124846243,-0.3263407784112354,4
51,3,1,51,56,html-slider-response,56,269770,3543.0,73.0,0.8,question_agency,question_agency_line,0.0,0.0,-7.0,0.0,7.0,7.0,5.0,25.0,-0.3557936953859588,0.1413139054305765,5
52,3,1,52,105,html-slider-response,105,485182,3080.0,83.0,0.8,question_agency,question_agency_line,0.0,0.0,3.0,0.0,11.0,6.0,4.0,28.0,-0.155897653445362,0.30514388033372025,1
48,3,1,48,149,html-slider-response,149,719382,4086.0,84.0,0.8,question_agency,question_agency_line_inverted,1.0,0.0,4.0,0.0,8.0,7.0,8.0,22.0,0.28468546898789837,0.13211186816552337,2
53,3,1,53,171,html-slider-response,171,808192,3446.0,77.0,0.8,question_agency,question_agency_line_inverted,1.0,0.0,-3.0,0.0,7.0,9.0,4.0,23.0,-0.16019798788212922,-0.03795430991129139,3
49,3,1,49,214,html-slider-response,214,1014470,4450.0,79.0,0.8,question_agency,question_agency_line_inverted,1.0,0.0,-1.0,0.0,4.0,5.0,7.0,25.0,0.5476779516640037,-0.03325389158602257,4
56,3,1,56,49,html-slider-response,49,223441,5810.0,79.0,0.9,question_agency,question_agency_line,0.0,0.0,-11.0,0.0,6.0,5.0,4.0,26.0,-0.4397453524890258,0.0337739673263742,5
59,3,1,59,65,html-slider-response,65,306463,2421.0,86.0,0.9,question_agency,question_agency_line,0.0,0.0,-4.0,0.0,6.0,5.0,5.0,25.0,0.395769948715028,-0.002767308743267067,1
57,3,1,57,102,html-slider-response,102,473094,3463.0,77.0,0.9,question_agency,question_agency_line,0.0,0.0,-13.0,0.0,8.0,3.0,7.0,15.0,0.3618669123200356,-0.5020243585534091,2
58,3,1,58,143,html-slider-response,143,694166,2783.0,88.0,0.9,question_agency,question_agency_line_inverted,1.0,0.0,-2.0,0.0,7.0,9.0,6.0,15.0,-0.24675155126492485,-0.05138815617405125,3
55,3,1,55,180,html-slider-response,180,849318,4189.0,80.0,0.9,question_agency,question_agency_line_inverted,1.0,0.0,-10.0,0.0,6.0,9.0,11.0,17.0,0.07356677880060548,-0.2631951695639217,4
54,3,1,54,220,html-slider-response,220,1053395,4474.0,82.0,0.9,question_agency,question_agency_line_inverted,1.0,0.0,-8.0,0.0,9.0,5.0,7.0,17.0,0.35273438725855694,0.10210277205525324,5
64,3,1,64,43,html-slider-response,43,195887,2546.0,91.0,1.0,question_agency,question_agency_line,0.0,0.0,-9.0,0.0,8.0,7.0,6.0,25.0,0.2505362986561195,-0.01572415109153504,1
61,3,1,61,62,html-slider-response,62,295032,3917.0,81.0,1.0,question_agency,question_agency_line,0.0,0.0,-19.0,0.0,5.0,5.0,4.0,30.0,-0.09529288273252327,-0.060582153683700554,2
62,3,1,62,117,html-slider-response,117,535271,3116.0,75.0,1.0,question_agency,question_agency_line,0.0,0.0,-25.0,0.0,7.0,8.0,7.0,21.0,-0.08271551229110631,0.21175462668955936,3
60,3,1,60,134,html-slider-response,134,658105,2854.0,79.0,1.0,question_agency,question_agency_line_inverted,1.0,0.0,-21.0,0.0,6.0,7.0,7.0,25.0,0.3545966980655865,0.09908527435848034,4
65,3,1,65,168,html-slider-response,168,795738,3351.0,77.0,1.0,question_agency,question_agency_line_inverted,1.0,0.0,-23.0,0.0,7.0,6.0,8.0,21.0,0.361848556865469,-0.33046567123830384,5
63,3,1,63,202,html-slider-response,202,962968,3448.0,80.0,1.0,question_agency,question_agency_line_inverted,1.0,0.0,-20.0,0.0,4.0,8.0,5.0,19.0,0.04920598806162241,-0.048232504286767314,1
0,4,1,0,25,html-slider-response,25,1156572,2475.0,7.0,0.0,question_agency,question_agency_line,0.0,0.0,7.0,0.0,6.0,7.0,9.0,18.0,-0.10929929939499526,-0.09765447595369255,1
3,4,1,3,86,html-slider-response,86,1394270,2928.0,4.0,0.0,question_agency,question_agency_line,0.0,0.0,4.0,0.0,7.0,5.0,8.0,5.0,0.4158359487874197,0.15312077148474257,2
2,4,1,2,114,html-slider-response,114,1501618,2062.0,5.0,0.0,question_agency,question_agency_line,0.0,0.0,5.0,0.0,4.0,7.0,8.0,22.0,0.13659936860047567,-0.15958540005945857,3
4,4,1,4,131,html-slider-response,131,1576151,2579.0,25.0,0.0,question_agency,question_agency_line_inverted,1.0,0.0,25.0,0.0,6.0,8.0,14.0,10.0,0.16184767271858633,0.37004293299896013,4
5,4,1,5,165,html-slider-response,165,1709065,2295.0,2.0,0.0,question_agency,question_agency_line_inverted,1.0,0.0,2.0,0.0,6.0,8.0,24.0,16.0,0.05270887975826997,0.1728992517837596,5
1,4,1,1,217,html-slider-response,217,1915695,6729.0,9.0,0.0,question_agency,question_agency_line_inverted,1.0,0.0,9.0,0.0,7.0,7.0,10.0,30.0,-0.016833062274609466,-0.11929162594327576,1
7,4,1,7,40,html-slider-response,40,1216755,2110.0,7.0,0.1,question_agency,question_agency_line,0.0,0.0,-3.0,0.0,8.0,6.0,10.0,21.0,0.1777618218150128,-0.32804975030027617,2
11,4,1,11,77,html-slider-response,77,1360120,2211.0,11.0,0.1,question_agency,question_agency_line,0.0,0.0,1.0,0.0,5.0,4.0,14.0,10.0,0.3666634765085701,-0.23651307098936372,3
6,4,1,6,93,html-slider-response,93,1419152,1928.0,14.0,0.1,question_agency,question_agency_line,0.0,0.0,4.0,0.0,5.0,9.0,20.0,18.0,-0.030545820384078146,0.0041503268260440805,4
9,4,1,9,128,html-slider-response,128,1564567,2396.0,4.0,0.1,question_agency,question_agency_line_inverted,1.0,0.0,-6.0,0.0,8.0,6.0,8.0,9.0,0.17595733019637808,-0.12219109018177518,5
10,4,1,10,183,html-slider-response,183,1781081,2047.0,0.0,0.1,question_agency,question_agency_line_inverted,1.0,0.0,-10.0,0.0,6.0,8.0,14.0,27.0,-0.22234272378887604,0.14017284769079338,1
8,4,1,8,208,html-slider-response,208,1877379,2112.0,2.0,0.1,question_agency,question_agency_line_inverted,1.0,0.0,-8.0,0.0,5.0,8.0,8.0,12.0,0.3207726700875865,0.12330448462629628,2
16,4,1,16,34,html-slider-response,34,1194206,2126.0,20.0,0.2,question_agency,question_agency_line,0.0,0.0,0.0,0.0,4.0,6.0,19.0,10.0,-0.017823133455836023,0.39048308446862157,3
15,4,1,15,56,html-slider-response,56,1279542,1649.0,30.0,0.2,question_agency,question_agency_line,0.0,0.0,10.0,0.0,6.0,2.0,14.0,36.0,0.27303779353685015,0.08874773056701812,4
14,4,1,14,102,html-slider-response,102,1456335,2863.0,49.0,0.2,question_agency,question_agency_line,0.0,0.0,29.0,0.0,8.0,8.0,10.0,15.0,-0.014236413540508901,0.09344962202010892,5
13,4,1,13,140,html-slider-response,140,1613333,2695.0,9.0,0.2,question_agency,question_agency_line_inverted,1.0,0.0,-11.0,0.0,7.0,4.0,2.0,11.0,0.2093076160993454,-0.4676598749694037,1
12,4,1,12,174,html-slider-response,174,1745831,4113.0,7.0,0.2,question_agency,question_agency_line_inverted,1.0,0.0,-13.0,0.0,6.0,7.0,12.0,18.0,0.09594094487027328,-0.21331105803997918,2
17,4,1,17,214,html-slider-response,214,1899961,2178.0,0.0,0.2,question_agency,question_agency_line_inverted,1.0,0.0,-20.0,0.0,4.0,8.0,8.0,16.0,-0.17845001575359098,-0.08320133821499211,3
21,4,1,21,37,html-slider-response,37,1205637,2425.0,13.0,0.3,question_agency,question_agency_line,0.0,0.0,-17.0,0.0,8.0,5.0,10.0,14.0,0.27492018136027685,0.29377154914797665,4
19,4,1,19,59,html-slider-response,59,1291603,3057.0,22.0,0.3,question_agency,question_agency_line,0.0,0.0,-8.0,0.0,8.0,4.0,21.0,23.0,-0.07452698869964036,-0.2626823306338962,5
22,4,1,22,105,html-slider-response,105,1467251,1913.0,5.0,0.3,question_agency,question_agency_line,0.0,0.0,-25.0,0.0,9.0,6.0,4.0,2.0,0.2171084991981571,0.09440337791311183,1
18,4,1,18,149,html-slider-response,149,1647833,2962.0,3.0,0.3,question_agency,question_agency_line_inverted,1.0,0.0,-27.0,0.0,6.0,4.0,2.0,4.0,0.46517861258820065,-0.28102753870254654,2
20,4,1,20,186,html-slider-response,186,1795264,5179.0,0.0,0.3,question_agency,question_agency_line_inverted,1.0,0.0,-30.0,0.0,6.0,7.0,6.0,15.0,-0.12758171362812615,-0.3656647446659819,3
23,4,1,23,223,html-slider-response,223,1941777,3529.0,3.0,0.3,question_agency,question_agency_line_inverted,1.0,0.0,-27.0,0.0,8.0,5.0,12.0,16.0,0.4381896935760455,-0.3038726097288507,4
27,4,1,27,22,html-slider-response,22,1145089,5119.0,35.0,0.4,question_agency,question_agency_line,0.0,0.0,-5.0,0.0,4.0,6.0,11.0,10.0,0.13577533468329586,0.1763481644288098,5
29,4,1,29,62,html-slider-response,62,1302537,1929.0,23.0,0.4,question_agency,question_agency_line,0.0,0.0,-17.0,0.0,6.0,6.0,4.0,7.0,0.3480943375577362,0.11419365750702307,1
28,4,1,28,120,html-slider-response,120,1525401,2478.0,61.0,0.4,question_agency,question_agency_line,0.0,0.0,21.0,0.0,6.0,7.0,6.0,8.0,0.6203677002371746,-0.08721173593980866,2
26,4,1,26,125,html-slider-response,125,1553167,2728.0,15.0,0.4,question_agency,question_agency_line_inverted,1.0,0.0,-25.0,0.0,5.0,6.0,10.0,9.0,0.04889024313241522,0.04649671055147227,3
24,4,1,24,162,html-slider-response,162,1697949,2345.0,64.0,0.4,question_agency,question_agency_line_inverted,1.0,0.0,24.0,0.0,5.0,5.0,11.0,14.0,0.16704336405737855,-0.19725507035979226,4
25,4,1,25,196,html-slider-response,196,1831613,1779.0,43.0,0.4,question_agency,question_agency_line_inverted,1.0,0.0,3.0,0.0,9.0,7.0,12.0,8.0,0.20981162465645142,-0.09500327694511183,5
31,4,1,31,52,html-slider-response,52,1266371,2429.0,68.0,0.5,question_agency,question_agency_line,0.0,0.0,18.0,0.0,7.0,6.0,13.0,10.0,0.2907136000117311,0.46181663718318416,1
34,4,1,34,65,html-slider-response,65,1313753,2210.0,14.0,0.5,question_agency,question_agency_line,0.0,0.0,-36.0,0.0,5.0,8.0,4.0,2.0,0.06665762241688332,-0.014676283672097543,2
35,4,1,35,96,html-slider-response,96,1430552,2395.0,23.0,0.5,question_agency,question_agency_line,0.0,0.0,-27.0,0.0,6.0,8.0,7.0,10.0,0.5125988819273292,0.3630113002831256,3
33,4,1,33,152,html-slider-response,152,1660016,3179.0,65.0,0.5,question_agency,question_agency_line_inverted,1.0,0.0,15.0,0.0,7.0,5.0,20.0,16.0,-0.1483870676596582,-0.0038597466906465025,4
32,4,1,32,177,html-slider-response,177,1758748,3913.0,31.0,0.5,question_agency,question_agency_line_inverted,1.0,0.0,-19.0,0.0,6.0,7.0,9.0,20.0,0.23373530282865967,-0.11059637206526801,5
30,4,1,30,202,html-slider-response,202,1853729,1996.0,79.0,0.5,question_agency,question_agency_line_inverted,1.0,0.0,29.0,0.0,8.0,7.0,8.0,8.0,0.3438105770495534,-0.12308371450143689,1
38,4,1,38,49,html-slider-response,49,1254937,3446.0,88.0,0.6,question_agency,question_agency_line,0.0,0.0,28.0,0.0,5.0,6.0,13.0,12.0,-0.20380448779876706,-0.2572989939466505,2
36,4,1,36,80,html-slider-response,80,1371470,2345.0,20.0,0.6,question_agency,question_agency_line,0.0,0.0,-40.0,0.0,9.0,7.0,8.0,5.0,-0.1288544835441314,-0.045990542326879755,3
41,4,1,41,99,html-slider-response,99,1444469,4912.0,51.0,0.6,question_agency,question_agency_line,0.0,0.0,-9.0,0.0,5.0,7.0,9.0,11.0,0.15587000331944803,-0.1645443207242793,4
37,4,1,37,137,html-slider-response,137,1601633,5363.0,62.0,0.6,question_agency,question_agency_line_inverted,1.0,0.0,2.0,0.0,6.0,6.0,6.0,6.0,0.06154033699659784,0.3965716145182852,5
39,4,1,39,180,html-slider-response,180,1770031,2280.0,70.0,0.6,question_agency,question_agency_line_inverted,1.0,0.0,10.0,0.0,5.0,7.0,17.0,10.0,-0.2846358054347063,0.18138545695998876,1
40,4,1,40,220,html-slider-response,220,1929244,4545.0,37.0,0.6,question_agency,question_agency_line_inverted,1.0,0.0,-23.0,0.0,7.0,7.0,10.0,14.0,-0.2031691252274124,0.060718702117513866,2
42,4,1,42,28,html-slider-response,28,1169905,4326.0,69.0,0.7,question_agency,question_agency_line,0.0,0.0,-1.0,0.0,7.0,7.0,16.0,17.0,-0.6612268199589397,0.01126511134755049,3
47,4,1,47,68,html-slider-response,68,1324654,1896.0,73.0,0.7,question_agency,question_agency_line,0.0,0.0,3.0,0.0,5.0,7.0,12.0,10.0,0.013570986418736709,0.2442520059200453,4
45,4,1,45,108,html-slider-response,108,1479318,3063.0,83.0,0.7,question_agency,question_agency_line,0.0,0.0,13.0,0.0,5.0,6.0,6.0,6.0,0.44279555171793644,-0.3365102083184374,5
46,4,1,46,134,html-slider-response,134,1587267,2113.0,81.0,0.7,question_agency,question_agency_line_inverted,1.0,0.0,11.0,0.0,6.0,9.0,8.0,10.0,0.27415616499610534,0.03231515814916995,1
44,4,1,44,189,html-slider-response,189,1808447,4179.0,93.0,0.7,question_agency,question_agency_line_inverted,1.0,0.0,23.0,0.0,7.0,8.0,14.0,12.0,-0.08109094733580176,0.0413436547000845,2
43,4,1,43,205,html-slider-response,205,1866263,3530.0,81.0,0.7,question_agency,question_agency_line_inverted,1.0,0.0,11.0,0.0,8.0,8.0,8.0,13.0,0.08064314557029885,0.13737495633816785,3
53,4,1,53,46,html-slider-response,46,1242487,2927.0,97.0,0.8,question_agency,question_agency_line,0.0,0.0,17.0,0.0,5.0,7.0,23.0,19.0,0.051316109024151776,-0.11731141360280685,4
50,4,1,50,83,html-slider-response,83,1382336,1861.0,79.0,0.8,question_agency,question_agency_line,0.0,0.0,-1.0,0.0,8.0,8.0,11.0,9.0,-0.16121624433690634,-0.1332700128794,5
51,4,1,51,90,html-slider-response,90,1408219,3162.0,75.0,0.8,question_agency,question_agency_line,0.0,0.0,-5.0,0.0,8.0,8.0,10.0,8.0,-0.07270164811739184,0.33975757246484506,1
49,4,1,49,155,html-slider-response,155,1672116,3095.0,50.0,0.8,question_agency,question_agency_line_inverted,1.0,0.0,-30.0,0.0,8.0,7.0,4.0,4.0,-0.38276064567073725,0.219963527020313,2
48,4,1,48,171,html-slider-response,171,1732715,3079.0,82.0,0.8,question_agency,question_agency_line_inverted,1.0,0.0,2.0,0.0,6.0,4.0,10.0,6.0,-0.01976293325619466,0.006494846258189263,3
52,4,1,52,199,html-slider-response,199,1842730,2112.0,82.0,0.8,question_agency,question_agency_line_inverted,1.0,0.0,2.0,0.0,4.0,6.0,16.0,13.0,-0.20591708165013659,-0.08224425188313235,4
55,4,1,55,43,html-slider-response,43,1230555,4793.0,98.0,0.9,question_agency,question_agency_line,0.0,0.0,8.0,0.0,5.0,9.0,11.0,11.0,0.11587599816695787,-0.03402904891622813,5
56,4,1,56,74,html-slider-response,74,1348903,2045.0,95.0,0.9,question_agency,question_agency_line,0.0,0.0,5.0,0.0,8.0,7.0,9.0,6.0,0.3077441637853406,0.25132925061394584,1
59,4,1,59,117,html-slider-response,117,1513918,3296.0,94.0,0.9,question_agency,question_agency_line,0.0,0.0,4.0,0.0,10.0,6.0,4.0,20.0,0.12911348590743407,0.19885924466220975,2
58,4,1,58,143,html-slider-response,143,1624517,2180.0,98.0,0.9,question_agency,question_agency_line_inverted,1.0,0.0,8.0,0.0,4.0,6.0,9.0,8.0,0.505447017429726,-0.031738034283866394,3
54,4,1,54,159,html-slider-response,159,1686599,2140.0,99.0,0.9,question_agency,question_agency_line_inverted,1.0,0.0,9.0,0.0,7.0,8.0,12.0,12.0,0.18680823075843847,-0.04886294283042065,4
57,4,1,57,193,html-slider-response,193,1820830,2163.0,97.0,0.9,question_agency,question_agency_line_inverted,1.0,0.0,7.0,0.0,6.0,5.0,12.0,8.0,-0.023018391635014616,0.32972072800904917,5
64,4,1,64,31,html-slider-response,31,1183072,4159.0,66.0,1.0,question_agency,question_agency_line,0.0,0.0,-34.0,0.0,7.0,8.0,18.0,12.0,0.26954737797207184,-0.19734781441051194,1
62,4,1,62,71,html-slider-response,71,1337853,4193.0,100.0,1.0,question_agency,question_agency_line,0.0,0.0,0.0,0.0,10.0,6.0,3.0,6.0,0.3552643592269369,-0.19164092923156517,2
60,4,1,60,111,html-slider-response,111,1490551,2228.0,100.0,1.0,question_agency,question_agency_line,0.0,0.0,0.0,0.0,5.0,6.0,8.0,8.0,-0.3175335418426861,-0.06642357734677108,3
61,4,1,61,146,html-slider-response,146,1635866,2346.0,99.0,1.0,question_agency,question_agency_line_inverted,1.0,0.0,-1.0,0.0,4.0,8.0,11.0,12.0,-0.07074841832323508,-0.12960665807630417,4
65,4,1,65,168,html-slider-response,168,1720632,2861.0,100.0,1.0,question_agency,question_agency_line_inverted,1.0,0.0,0.0,0.0,6.0,6.0,17.0,10.0,0.029024203292723254,0.11707020810759207,5
63,4,1,63,211,html-slider-response,211,1888778,2396.0,93.0,1.0,question_agency,question_agency_line_inverted,1.0,0.0,-7.0,0.0,5.0,7.0,6.0,5.0,-0.3405105770969762,0.07031532247808107,1
5,5,1,5,34,html-slider-response,34,308922,2844.0,0.0,0.0,question_agency,question_agency_line,0.0,0.0,0.0,0.0,9.0,8.0,22.0,26.0,-0.05883256173170034,0.09614771502378923,1
0,5,1,0,80,html-slider-response,80,486208,2827.0,0.0,0.0,question_agency,question_agency_line,0.0,0.0,0.0,0.0,9.0,6.0,22.0,40.0,0.035362707057544525,-0.0936768577933307,2
1,5,1,1,117,html-slider-response,117,633085,2089.0,23.0,0.0,question_agency,question_agency_line,0.0,0.0,23.0,0.0,8.0,4.0,14.0,50.0,0.08900673703371845,0.23212416185502635,3
4,5,1,4,143,html-slider-response,143,737450,2342.0,78.0,0.0,question_agency,question_agency_line_inverted,1.0,0.0,78.0,0.0,5.0,8.0,20.0,8.0,0.522631038493628,0.19830080245372664,4
2,5,1,2,165,html-slider-response,165,825035,2161.0,4.0,0.0,question_agency,question_agency_line_inverted,1.0,0.0,4.0,0.0,8.0,6.0,40.0,0.0,0.3706453433646262,0.0,5
3,5,1,3,205,html-slider-response,205,999501,1882.0,2.0,0.0,question_agency,question_agency_line_inverted,1.0,0.0,2.0,0.0,7.0,5.0,46.0,18.0,0.29062414095856276,0.44413454157185,1
6,5,1,6,37,html-slider-response,37,320382,2454.0,0.0,0.1,question_agency,question_agency_line,0.0,0.0,-10.0,0.0,7.0,6.0,14.0,66.0,0.07768449514104012,0.14497410610083009,2
8,5,1,8,77,html-slider-response,77,474363,4457.0,5.0,0.1,question_agency,question_agency_line,0.0,0.0,-5.0,0.0,6.0,10.0,56.0,24.0,-0.17689363698704638,-0.012697844099159077,3
10,5,1,10,114,html-slider-response,114,621980,2656.0,43.0,0.1,question_agency,question_agency_line,0.0,0.0,33.0,0.0,6.0,7.0,46.0,22.0,-0.011189866765166973,0.13398025522337167,4
11,5,1,11,131,html-slider-response,131,690147,2218.0,42.0,0.1,question_agency,question_agency_line_inverted,1.0,0.0,32.0,0.0,7.0,6.0,22.0,31.0,-0.34726434839994047,0.3793876458302516,5
7,5,1,7,162,html-slider-response,162,813848,2857.0,9.0,0.1,question_agency,question_agency_line_inverted,1.0,0.0,-1.0,0.0,8.0,8.0,62.0,12.0,0.24269130165843172,-0.14982292604610847,1
9,5,1,9,199,html-slider-response,199,976896,2411.0,2.0,0.1,question_agency,question_agency_line_inverted,1.0,0.0,-8.0,0.0,4.0,7.0,49.0,6.0,-0.37662824979739107,-0.24162176531204616,2
15,5,1,15,46,html-slider-response,46,355692,2749.0,19.0,0.2,question_agency,question_agency_line,0.0,0.0,-1.0,0.0,9.0,9.0,40.0,14.0,0.09313868800521016,0.2625374181389094,3
14,5,1,14,74,html-slider-response,74,460901,2960.0,3.0,0.2,question_agency,question_agency_line,0.0,0.0,-17.0,0.0,5.0,7.0,22.0,32.0,-0.3010924151782836,-0.03483818282888289,4
17,5,1,17,96,html-slider-response,96,551036,1956.0,0.0,0.2,question_agency,question_agency_line,0.0,0.0,-20.0,0.0,9.0,9.0,56.0,26.0,-0.1680148363966945,-0.02266364759444653,5
12,5,1,12,152,html-slider-response,152,776052,4277.0,25.0,0.2,question_agency,question_agency_line_inverted,1.0,0.0,5.0,0.0,8.0,6.0,18.0,49.0,0.08582474245634922,0.20967984273621537,1
13,5,1,13,159,html-slider-response,159,801974,2720.0,3.0,0.2,question_agency,question_agency_line_inverted,1.0,0.0,-17.0,0.0,6.0,6.0,46.0,7.0,0.42480618143210874,0.10752832956806473,2
16,5,1,16,220,html-slider-response,220,1062943,8792.0,49.0,0.2,question_agency,question_agency_line_inverted,1.0,0.0,29.0,0.0,8.0,6.0,8.0,0.0,0.002902718707402505,0.0,3
18,5,1,18,25,html-slider-response,25,272903,3447.0,10.0,0.3,question_agency,question_agency_line,0.0,0.0,-20.0,0.0,6.0,6.0,24.0,18.0,0.4168015570905451,-0.025628749678072094,4
21,5,1,21,68,html-slider-response,68,438093,2395.0,7.0,0.3,question_agency,question_agency_line,0.0,0.0,-23.0,0.0,9.0,7.0,35.0,22.0,0.17291795579128186,-0.20342593268701628,5
20,5,1,20,93,html-slider-response,93,540074,3458.0,6.0,0.3,question_agency,question_agency_line,0.0,0.0,-24.0,0.0,8.0,8.0,10.0,37.0,0.48812087822372535,-0.07040779448707948,1
22,5,1,22,149,html-slider-response,149,762767,4814.0,27.0,0.3,question_agency,question_agency_line_inverted,1.0,0.0,-3.0,0.0,10.0,7.0,37.0,20.0,-0.29911144637935455,0.2804175035356693,2
23,5,1,23,174,html-slider-response,174,860210,2930.0,40.0,0.3,question_agency,question_agency_line_inverted,1.0,0.0,10.0,0.0,5.0,5.0,0.0,16.0,0.0,0.17218062239408574,3
19,5,1,19,196,html-slider-response,196,965457,2470.0,31.0,0.3,question_agency,question_agency_line_inverted,1.0,0.0,1.0,0.0,10.0,7.0,34.0,37.0,0.5120220335062483,-0.1852640136751882,4
28,5,1,28,52,html-slider-response,52,379218,2440.0,27.0,0.4,question_agency,question_agency_line,0.0,0.0,-13.0,0.0,7.0,9.0,16.0,26.0,-0.32830242853078334,0.32908716040906905,5
27,5,1,27,59,html-slider-response,59,404676,1857.0,52.0,0.4,question_agency,question_agency_line,0.0,0.0,12.0,0.0,5.0,6.0,29.0,16.0,-0.1355189047569508,0.24074206964310918,1
24,5,1,24,108,html-slider-response,108,599432,3473.0,53.0,0.4,question_agency,question_agency_line,0.0,0.0,13.0,0.0,7.0,6.0,48.0,12.0,0.1797957676084332,0.211624949636318,2
26,5,1,26,137,html-slider-response,137,714464,2233.0,48.0,0.4,question_agency,question_agency_line_inverted,1.0,0.0,8.0,0.0,6.0,8.0,23.0,2.0,-0.5219070429074204,0.2850346995963556,3
25,5,1,25,177,html-slider-response,177,871680,2410.0,36.0,0.4,question_agency,question_agency_line_inverted,1.0,0.0,-4.0,0.0,8.0,7.0,23.0,2.0,0.17092360046853047,0.05276175609998359,4
29,5,1,29,211,html-slider-response,211,1022422,2553.0,24.0,0.4,question_agency,question_agency_line_inverted,1.0,0.0,-16.0,0.0,9.0,8.0,44.0,28.0,0.304358735755502,-0.05927589490639515,5
33,5,1,33,49,html-slider-response,49,367768,3070.0,57.0,0.5,question_agency,question_agency_line,0.0,0.0,7.0,0.0,8.0,6.0,40.0,10.0,-0.127060158262824,0.23684386215075412,1
30,5,1,30,83,html-slider-response,83,498211,3000.0,10.0,0.5,question_agency,question_agency_line,0.0,0.0,-40.0,0.0,5.0,7.0,79.0,0.0,0.12564184423594066,0.0,2
31,5,1,31,105,html-slider-response,105,586954,4289.0,39.0,0.5,question_agency,question_agency_line,0.0,0.0,-11.0,0.0,7.0,5.0,12.0,32.0,0.29496107130314425,-0.004584627099524022,3
34,5,1,34,146,html-slider-response,146,748902,2418.0,66.0,0.5,question_agency,question_agency_line_inverted,1.0,0.0,16.0,0.0,7.0,7.0,12.0,42.0,0.1920263263570094,0.17286434420359795,4
32,5,1,32,183,html-slider-response,183,902889,2156.0,49.0,0.5,question_agency,question_agency_line_inverted,1.0,0.0,-1.0,0.0,7.0,5.0,16.0,43.0,-0.191406303641983,-0.30064923161683876,5
35,5,1,35,217,html-slider-response,217,1045101,2405.0,73.0,0.5,question_agency,question_agency_line_inverted,1.0,0.0,23.0,0.0,6.0,5.0,4.0,4.0,0.32814934502438653,-0.26785449160424357,1
38,5,1,38,22,html-slider-response,22,260442,4490.0,2.0,0.6,question_agency,question_agency_line,0.0,0.0,-58.0,0.0,7.0,9.0,10.0,10.0,-0.03785034829876416,-0.14898493731162538,2
41,5,1,41,56,html-slider-response,56,394120,2979.0,63.0,0.6,question_agency,question_agency_line,0.0,0.0,3.0,0.0,6.0,6.0,22.0,42.0,-0.08644747684771828,-0.06892144319699656,3
39,5,1,39,120,html-slider-response,120,644270,2170.0,44.0,0.6,question_agency,question_agency_line,0.0,0.0,-16.0,0.0,7.0,8.0,7.0,4.0,-0.3515204433703198,0.09730631545305438,4
40,5,1,40,128,html-slider-response,128,678908,2565.0,73.0,0.6,question_agency,question_agency_line_inverted,1.0,0.0,13.0,0.0,10.0,6.0,20.0,22.0,0.10138360959959385,0.028680159424646884,5
36,5,1,36,189,html-slider-response,189,937241,4793.0,40.0,0.6,question_agency,question_agency_line_inverted,1.0,0.0,-20.0,0.0,7.0,7.0,6.0,24.0,0.20454621620806626,0.08874169558982414,1
37,5,1,37,202,html-slider-response,202,988557,2595.0,60.0,0.6,question_agency,question_agency_line_inverted,1.0,0.0,0.0,0.0,5.0,7.0,28.0,2.0,0.1466442226026947,-0.030283621280777738,2
44,5,1,44,40,html-slider-response,40,333076,3683.0,48.0,0.7,question_agency,question_agency_line,0.0,0.0,-22.0,0.0,4.0,5.0,17.0,36.0,0.5006159724868703,0.3054540458110781,3
42,5,1,42,71,html-slider-response,71,448931,1828.0,72.0,0.7,question_agency,question_agency_line,0.0,0.0,2.0,0.0,6.0,5.0,18.0,38.0,-0.12084716088538312,0.13691874832236844,4
47,5,1,47,90,html-slider-response,90,527606,4518.0,42.0,0.7,question_agency,question_agency_line,0.0,0.0,-28.0,0.0,8.0,8.0,23.0,20.0,0.31837252816951733,0.14675178321636145,5
46,5,1,46,140,html-slider-response,140,726093,2623.0,58.0,0.7,question_agency,question_agency_line_inverted,1.0,0.0,-12.0,0.0,5.0,8.0,5.0,4.0,-0.12598212644232945,-0.020632258959548608,1
45,5,1,45,168,html-slider-response,168,837029,2979.0,59.0,0.7,question_agency,question_agency_line_inverted,1.0,0.0,-11.0,0.0,7.0,7.0,4.0,16.0,0.22461660660905078,-0.0058074610999870385,2
43,5,1,43,208,html-slider-response,208,1010832,2266.0,83.0,0.7,question_agency,question_agency_line_inverted,1.0,0.0,13.0,0.0,8.0,8.0,6.0,3.0,0.3124466776691355,0.27044725553730564,3
48,5,1,48,43,html-slider-response,43,343931,1838.0,70.0,0.8,question_agency,question_agency_line,0.0,0.0,-10.0,0.0,6.0,7.0,18.0,34.0,0.12492207047772598,-0.21098004780968332,4
53,5,1,53,86,html-slider-response,86,510905,3688.0,60.0,0.8,question_agency,question_agency_line,0.0,0.0,-20.0,0.0,6.0,4.0,9.0,18.0,0.009573357888869477,0.5127640770385675,5
52,5,1,52,99,html-slider-response,99,562438,2387.0,94.0,0.8,question_agency,question_agency_line,0.0,0.0,14.0,0.0,6.0,5.0,12.0,24.0,0.3238146591839289,-0.3652667032603972,1
50,5,1,50,134,html-slider-response,134,703225,4038.0,93.0,0.8,question_agency,question_agency_line_inverted,1.0,0.0,13.0,0.0,6.0,5.0,6.0,12.0,0.524900919661395,-0.3936523189978431,2
51,5,1,51,171,html-slider-response,171,848251,2200.0,83.0,0.8,question_agency,question_agency_line_inverted,1.0,0.0,3.0,0.0,9.0,9.0,2.0,12.0,-0.02701659008781973,0.31013580126645746,3
49,5,1,49,193,html-slider-response,193,953966,6480.0,83.0,0.8,question_agency,question_agency_line_inverted,1.0,0.0,3.0,0.0,5.0,8.0,12.0,21.0,0.19177300529491143,-0.10000550123138265,4
58,5,1,58,31,html-slider-response,31,297067,3116.0,61.0,0.9,question_agency,question_agency_line,0.0,0.0,-29.0,0.0,10.0,9.0,27.0,36.0,0.3013922594451097,-0.030174104176275456,5
55,5,1,55,65,html-slider-response,65,426690,2163.0,96.0,0.9,question_agency,question_agency_line,0.0,0.0,6.0,0.0,5.0,6.0,7.0,8.0,-0.11088551560653255,-0.09778180653158128,1
56,5,1,56,111,html-slider-response,111,610303,1850.0,98.0,0.9,question_agency,question_agency_line,0.0,0.0,8.0,0.0,6.0,6.0,28.0,17.0,0.1226813309932304,0.056065301599934496,2
57,5,1,57,125,html-slider-response,125,667334,7069.0,84.0,0.9,question_agency,question_agency_line_inverted,1.0,0.0,-6.0,0.0,5.0,6.0,30.0,24.0,-0.5127598138980664,0.21805146504409903,3
54,5,1,54,180,html-slider-response,180,891683,10973.0,80.0,0.9,question_agency,question_agency_line_inverted,1.0,0.0,-10.0,0.0,9.0,6.0,30.0,28.0,0.29718394170272167,0.1323399848680941,4
59,5,1,59,214,html-slider-response,214,1033644,2130.0,84.0,0.9,question_agency,question_agency_line_inverted,1.0,0.0,-6.0,0.0,7.0,8.0,5.0,4.0,-0.3659128452210831,-0.07699888732758647,5
64,5,1,64,28,html-slider-response,28,284932,3010.0,100.0,1.0,question_agency,question_agency_line,0.0,0.0,0.0,0.0,8.0,6.0,24.0,29.0,0.06066401508288379,0.22961058727530223,1
61,5,1,61,62,html-slider-response,62,415513,1826.0,100.0,1.0,question_agency,question_agency_line,0.0,0.0,0.0,0.0,3.0,6.0,8.0,20.0,0.35997897631562514,-0.019692531402769147,2
62,5,1,62,102,html-slider-response,102,573657,2213.0,100.0,1.0,question_agency,question_agency_line,0.0,0.0,0.0,0.0,6.0,8.0,6.0,5.0,0.5036155943044615,0.14314396717330197,3
63,5,1,63,155,html-slider-response,155,787337,2270.0,100.0,1.0,question_agency,question_agency_line_inverted,1.0,0.0,0.0,0.0,9.0,7.0,6.0,10.0,-0.31475651772018437,0.14819321384214143,4
60,5,1,60,186,html-slider-response,186,923410,11505.0,78.0,1.0,question_agency,question_agency_line_inverted,1.0,0.0,-22.0,0.0,6.0,6.0,9.0,4.0,0.07736727961576739,0.3324717004707468,5
65,5,1,65,223,html-slider-response,223,1073887,1867.0,97.0,1.0,question_agency,question_agency_line_inverted,1.0,0.0,-3.0,0.0,6.0,6.0,6.0,13.0,-0.6735863772218755,0.09529942329220188,1
5,6,1,5,46,html-slider-response,46,730915,2029.0,20.0,0.0,question_agency,question_agency_line_inverted,1.0,0.0,20.0,0.0,7.0,9.0,7.0,8.0,-0.11740781780054405,0.042487130023523285,1
3,6,1,3,74,html-slider-response,74,840265,1563.0,10.0,0.0,question_agency,question_agency_line_inverted,1.0,0.0,10.0,0.0,11.0,9.0,16.0,4.0,0.0534180011352874,0.2167236381127677,2
1,6,1,1,117,html-slider-response,117,1005603,2456.0,20.0,0.0,question_agency,question_agency_line_inverted,1.0,0.0,20.0,0.0,10.0,8.0,16.0,20.0,0.35844706682603117,0.032387340048962425,3
2,6,1,2,146,html-slider-response,146,1125469,2078.0,8.0,0.0,question_agency,question_agency_line,0.0,0.0,8.0,0.0,7.0,9.0,14.0,24.0,0.22676211138629962,-0.21174850133942938,4
4,6,1,4,177,html-slider-response,177,1248635,2735.0,8.0,0.0,question_agency,question_agency_line,0.0,0.0,8.0,0.0,10.0,10.0,11.0,5.0,0.11081860813138639,0.4388662292276158,5
0,6,1,0,223,html-slider-response,223,1439128,4374.0,7.0,0.0,question_agency,question_agency_line,0.0,0.0,7.0,0.0,8.0,10.0,8.0,2.0,0.2533951966182659,-0.04929371824025997,1
11,6,1,11,25,html-slider-response,25,650357,2749.0,10.0,0.1,question_agency,question_agency_line_inverted,1.0,0.0,0.0,0.0,7.0,7.0,13.0,17.0,0.07729792504900514,-0.327165788317831,2
10,6,1,10,80,html-slider-response,80,864168,2802.0,21.0,0.1,question_agency,question_agency_line_inverted,1.0,0.0,11.0,0.0,8.0,9.0,5.0,13.0,-0.035842730131489586,-0.01810869198516691,3
7,6,1,7,105,html-slider-response,105,959891,2749.0,14.0,0.1,question_agency,question_agency_line_inverted,1.0,0.0,4.0,0.0,6.0,8.0,21.0,32.0,0.04444184129164329,0.23737228377615585,4
6,6,1,6,149,html-slider-response,149,1137852,3377.0,5.0,0.1,question_agency,question_agency_line,0.0,0.0,-5.0,0.0,9.0,7.0,3.0,5.0,-0.46782882213139254,0.09678883960499918,5
8,6,1,8,186,html-slider-response,186,1286765,4884.0,7.0,0.1,question_agency,question_agency_line,0.0,0.0,-3.0,0.0,7.0,4.0,8.0,12.0,0.21891842099356887,-0.20006794324922272,1
9,6,1,9,199,html-slider-response,199,1336902,2288.0,0.0,0.1,question_agency,question_agency_line,0.0,0.0,-10.0,0.0,7.0,9.0,6.0,6.0,-0.47103789440691846,-0.06306663695614576,2
17,6,1,17,28,html-slider-response,28,662402,3037.0,17.0,0.2,question_agency,question_agency_line_inverted,1.0,0.0,-3.0,0.0,7.0,5.0,11.0,6.0,0.21285305475802774,-0.2980439130427282,3
16,6,1,16,86,html-slider-response,86,887733,3228.0,5.0,0.2,question_agency,question_agency_line_inverted,1.0,0.0,-15.0,0.0,9.0,6.0,7.0,8.0,0.11062193211999273,-0.3865296887254739,4
15,6,1,15,108,html-slider-response,108,970887,1988.0,9.0,0.2,question_agency,question_agency_line_inverted,1.0,0.0,-11.0,0.0,8.0,6.0,17.0,18.0,-0.4878966403158003,-0.07227699952193138,5
14,6,1,14,131,html-slider-response,131,1068506,2522.0,21.0,0.2,question_agency,question_agency_line,0.0,0.0,1.0,0.0,7.0,8.0,5.0,6.0,0.39099788931017926,0.269114936949123,1
12,6,1,12,189,html-slider-response,189,1298637,2865.0,7.0,0.2,question_agency,question_agency_line,0.0,0.0,-13.0,0.0,5.0,7.0,3.0,20.0,0.2420177674891575,-0.1930999399514979,2
13,6,1,13,205,html-slider-response,205,1362598,4841.0,27.0,0.2,question_agency,question_agency_line,0.0,0.0,7.0,0.0,8.0,5.0,10.0,5.0,-0.31820051707867836,0.10300863303065967,3
18,6,1,18,31,html-slider-response,31,673277,1869.0,21.0,0.3,question_agency,question_agency_line_inverted,1.0,0.0,-9.0,0.0,6.0,6.0,11.0,12.0,-0.38007156531962444,-0.3958152831127909,4
22,6,1,22,77,html-slider-response,77,852363,3094.0,13.0,0.3,question_agency,question_agency_line_inverted,1.0,0.0,-17.0,0.0,8.0,5.0,11.0,4.0,0.15532708702222475,0.014601566788247878,5
19,6,1,19,102,html-slider-response,102,948138,3070.0,21.0,0.3,question_agency,question_agency_line_inverted,1.0,0.0,-9.0,0.0,6.0,8.0,11.0,46.0,-0.2834842515663502,-0.2593668339511712,1
21,6,1,21,134,html-slider-response,134,1080071,2560.0,10.0,0.3,question_agency,question_agency_line,0.0,0.0,-20.0,0.0,4.0,6.0,8.0,23.0,-0.3583885732475177,0.10305491325342916,2
20,6,1,20,159,html-slider-response,159,1177677,2644.0,1.0,0.3,question_agency,question_agency_line,0.0,0.0,-29.0,0.0,5.0,6.0,6.0,9.0,0.17406992398478807,-0.1192530987845656,3
23,6,1,23,220,html-slider-response,220,1425749,6739.0,33.0,0.3,question_agency,question_agency_line,0.0,0.0,3.0,0.0,7.0,7.0,7.0,9.0,0.15233210043821274,0.1690156675735113,4
25,6,1,25,40,html-slider-response,40,707845,2412.0,19.0,0.4,question_agency,question_agency_line_inverted,1.0,0.0,-21.0,0.0,8.0,7.0,9.0,3.0,-0.08737918817900013,0.08541069457036297,5
27,6,1,27,62,html-slider-response,62,792325,2698.0,28.0,0.4,question_agency,question_agency_line_inverted,1.0,0.0,-12.0,0.0,8.0,9.0,13.0,4.0,-0.21183910055895808,-0.13245700090530244,1
29,6,1,29,111,html-slider-response,111,982436,2542.0,12.0,0.4,question_agency,question_agency_line_inverted,1.0,0.0,-28.0,0.0,10.0,8.0,9.0,10.0,0.22543853746599712,-0.052077667353536895,2
28,6,1,28,155,html-slider-response,155,1164829,6009.0,47.0,0.4,question_agency,question_agency_line,0.0,0.0,7.0,0.0,8.0,9.0,7.0,15.0,-0.2143034895867531,0.08450856507263449,3
24,6,1,24,165,html-slider-response,165,1200289,2147.0,21.0,0.4,question_agency,question_agency_line,0.0,0.0,-19.0,0.0,6.0,6.0,2.0,8.0,0.18301784249944925,-0.24126983617134617,4
26,6,1,26,202,html-slider-response,202,1348752,2847.0,10.0,0.4,question_agency,question_agency_line,0.0,0.0,-30.0,0.0,7.0,8.0,5.0,4.0,0.08566419497508179,-0.1591058289528199,5
35,6,1,35,49,html-slider-response,49,742683,2765.0,19.0,0.5,question_agency,question_agency_line_inverted,1.0,0.0,-31.0,0.0,8.0,8.0,7.0,3.0,-0.13297781511625287,-0.1569771288607493,1
33,6,1,33,83,html-slider-response,83,875501,2329.0,10.0,0.5,question_agency,question_agency_line_inverted,1.0,0.0,-40.0,0.0,3.0,4.0,7.0,7.0,-0.451178783093286,-0.6651544573778889,2
32,6,1,32,90,html-slider-response,90,901256,3181.0,22.0,0.5,question_agency,question_agency_line_inverted,1.0,0.0,-28.0,0.0,4.0,7.0,8.0,28.0,-0.10289346157127141,-0.4892196768017941,3
30,6,1,30,140,html-slider-response,140,1103082,2178.0,78.0,0.5,question_agency,question_agency_line,0.0,0.0,28.0,0.0,6.0,7.0,8.0,11.0,-0.15281196703489067,-0.19277697931153673,4
31,6,1,31,168,html-slider-response,168,1212477,3184.0,64.0,0.5,question_agency,question_agency_line,0.0,0.0,14.0,0.0,6.0,8.0,6.0,24.0,-0.13057754996410714,0.14813275232711132,5
34,6,1,34,211,html-slider-response,211,1387903,1857.0,50.0,0.5,question_agency,question_agency_line,0.0,0.0,0.0,0.0,8.0,6.0,4.0,5.0,-0.005649080878162723,0.24292970466246985,1
39,6,1,39,22,html-slider-response,22,638605,5033.0,30.0,0.6,question_agency,question_agency_line_inverted,1.0,0.0,-30.0,0.0,6.0,9.0,4.0,6.0,0.19439694526486714,0.2977055873140577,2
41,6,1,41,59,html-slider-response,59,780618,3048.0,78.0,0.6,question_agency,question_agency_line_inverted,1.0,0.0,18.0,0.0,7.0,5.0,10.0,7.0,0.48220192576135684,-0.44217817910251755,3
40,6,1,40,120,html-slider-response,120,1016584,1975.0,83.0,0.6,question_agency,question_agency_line_inverted,1.0,0.0,23.0,0.0,8.0,5.0,7.0,7.0,-0.4238702627504831,-0.05897482220871911,4
36,6,1,36,152,html-slider-response,152,1149814,2958.0,87.0,0.6,question_agency,question_agency_line,0.0,0.0,27.0,0.0,5.0,7.0,8.0,10.0,0.08558457741099394,0.03418913283751832,5
37,6,1,37,174,html-slider-response,174,1236890,3410.0,77.0,0.6,question_agency,question_agency_line,0.0,0.0,17.0,0.0,7.0,7.0,5.0,11.0,-0.4227228996273345,-0.310098025620066,1
38,6,1,38,196,html-slider-response,196,1325608,3969.0,41.0,0.6,question_agency,question_agency_line,0.0,0.0,-19.0,0.0,7.0,6.0,4.0,12.0,-0.3081559394643587,-0.3461440142198162,2
42,6,1,42,34,html-slider-response,34,685353,3072.0,62.0,0.7,question_agency,question_agency_line_inverted,1.0,0.0,-8.0,0.0,8.0,7.0,14.0,12.0,-0.2338077491147446,0.06424173350374289,3
44,6,1,44,65,html-slider-response,65,803927,2598.0,89.0,0.7,question_agency,question_agency_line_inverted,1.0,0.0,19.0,0.0,6.0,7.0,8.0,5.0,-0.15795280134359288,0.1781870472857736,4
45,6,1,45,96,html-slider-response,96,924845,3182.0,91.0,0.7,question_agency,question_agency_line_inverted,1.0,0.0,21.0,0.0,6.0,8.0,9.0,8.0,0.008530195427821107,0.2864924366910171,5
46,6,1,46,143,html-slider-response,143,1114385,2298.0,75.0,0.7,question_agency,question_agency_line,0.0,0.0,5.0,0.0,7.0,6.0,5.0,19.0,0.02629138547161454,-0.2045557877011966,1
47,6,1,47,171,html-slider-response,171,1224477,2996.0,92.0,0.7,question_agency,question_agency_line,0.0,0.0,22.0,0.0,8.0,8.0,5.0,17.0,-0.20200626569831612,-0.15063646816836254,2
43,6,1,43,193,html-slider-response,193,1312633,4085.0,84.0,0.7,question_agency,question_agency_line,0.0,0.0,14.0,0.0,9.0,7.0,6.0,17.0,-0.20504741832467802,-0.15812083131832727,3
48,6,1,48,43,html-slider-response,43,719882,3033.0,96.0,0.8,question_agency,question_agency_line_inverted,1.0,0.0,16.0,0.0,7.0,10.0,10.0,13.0,0.3735848255654787,0.4330344562989605,4
53,6,1,53,71,html-slider-response,71,829698,4587.0,89.0,0.8,question_agency,question_agency_line_inverted,1.0,0.0,9.0,0.0,6.0,4.0,21.0,16.0,-0.1848104949289523,0.03970812024845701,5
51,6,1,51,114,html-slider-response,114,994145,2699.0,95.0,0.8,question_agency,question_agency_line_inverted,1.0,0.0,15.0,0.0,4.0,5.0,13.0,11.0,-0.13685369846411413,-0.19071638385549464,1
52,6,1,52,125,html-slider-response,125,1043389,2066.0,90.0,0.8,question_agency,question_agency_line,0.0,0.0,10.0,0.0,5.0,9.0,11.0,11.0,-0.6087818340876501,0.07141301953004137,2
50,6,1,50,162,html-slider-response,162,1189137,2455.0,88.0,0.8,question_agency,question_agency_line,0.0,0.0,8.0,0.0,5.0,8.0,7.0,13.0,-0.2224866621290589,-0.007517955952121746,3
49,6,1,49,208,html-slider-response,208,1377043,5440.0,96.0,0.8,question_agency,question_agency_line,0.0,0.0,16.0,0.0,5.0,10.0,8.0,10.0,0.3208977816904934,0.15769401052120438,4
54,6,1,54,37,html-slider-response,37,696430,2074.0,84.0,0.9,question_agency,question_agency_line_inverted,1.0,0.0,-6.0,0.0,7.0,9.0,10.0,7.0,0.015436185719468504,-0.0433312623064749,5
57,6,1,57,56,html-slider-response,56,768565,2702.0,98.0,0.9,question_agency,question_agency_line_inverted,1.0,0.0,8.0,0.0,11.0,9.0,9.0,10.0,0.0907078829531766,0.10323646334129442,1
56,6,1,56,93,html-slider-response,93,912656,2394.0,92.0,0.9,question_agency,question_agency_line_inverted,1.0,0.0,2.0,0.0,6.0,7.0,7.0,8.0,0.41507109901342976,-0.3117174793932178,2
58,6,1,58,128,html-slider-response,128,1056979,4583.0,88.0,0.9,question_agency,question_agency_line,0.0,0.0,-2.0,0.0,7.0,9.0,10.0,14.0,0.017911309527279155,-0.04651839960605587,3
55,6,1,55,180,html-slider-response,180,1261295,3656.0,95.0,0.9,question_agency,question_agency_line,0.0,0.0,5.0,0.0,7.0,6.0,7.0,11.0,0.28122766668729116,-0.06518759989234435,4
59,6,1,59,214,html-slider-response,214,1398524,1618.0,95.0,0.9,question_agency,question_agency_line,0.0,0.0,5.0,0.0,8.0,4.0,5.0,5.0,0.37734183655867554,-0.025852850983959313,5
64,6,1,64,52,html-slider-response,52,755140,3454.0,100.0,1.0,question_agency,question_agency_line_inverted,1.0,0.0,0.0,0.0,11.0,11.0,13.0,8.0,-0.16726627423585155,-0.08529154305062947,1
62,6,1,62,68,html-slider-response,68,816108,3172.0,100.0,1.0,question_agency,question_agency_line_inverted,1.0,0.0,0.0,0.0,5.0,5.0,16.0,10.0,0.11117924226306847,0.13637412536187807,2
63,6,1,63,99,html-slider-response,99,936063,2213.0,100.0,1.0,question_agency,question_agency_line_inverted,1.0,0.0,0.0,0.0,4.0,4.0,15.0,12.0,-0.30180597390373776,0.05027030536756579,3
61,6,1,61,137,html-slider-response,137,1091899,2824.0,100.0,1.0,question_agency,question_agency_line,0.0,0.0,0.0,0.0,5.0,7.0,10.0,8.0,0.03408531973116942,0.05436619488715441,4
65,6,1,65,183,html-slider-response,183,1272876,2578.0,100.0,1.0,question_agency,question_agency_line,0.0,0.0,0.0,0.0,6.0,10.0,12.0,10.0,-0.18799085983679054,-0.24043460401382258,5
60,6,1,60,217,html-slider-response,217,1410006,2476.0,100.0,1.0,question_agency,question_agency_line,0.0,0.0,0.0,0.0,8.0,8.0,24.0,18.0,0.03252990762831553,-0.006296348567605388,1
3,7,1,3,52,html-slider-response,52,203735,2531.0,2.0,0.0,question_agency,question_agency_line,0.0,0.0,2.0,0.0,6.0,7.0,11.0,0.0,0.258505607932978,0.0,1
4,7,1,4,56,html-slider-response,56,218011,3676.0,0.0,0.0,question_agency,question_agency_line,0.0,0.0,0.0,0.0,4.0,6.0,16.0,5.0,-0.24095418805097668,-0.47131584455982034,2
2,7,1,2,93,html-slider-response,93,369560,2014.0,0.0,0.0,question_agency,question_agency_line,0.0,0.0,0.0,0.0,5.0,6.0,22.0,6.0,-0.22354698458664374,-0.10969135197215929,3
1,7,1,1,149,html-slider-response,149,597144,6361.0,0.0,0.0,question_agency,question_agency_line_inverted,1.0,0.0,0.0,0.0,7.0,6.0,13.0,12.0,0.2028417808187764,-0.06666760445924376,4
5,7,1,5,165,html-slider-response,165,657666,2540.0,2.0,0.0,question_agency,question_agency_line_inverted,1.0,0.0,2.0,0.0,9.0,10.0,13.0,4.0,0.2028780489815515,-0.11255648094168286,5
0,7,1,0,202,html-slider-response,202,825485,2291.0,0.0,0.0,question_agency,question_agency_line_inverted,1.0,0.0,0.0,0.0,6.0,6.0,6.0,2.0,-0.20695305453453544,0.19821534328040488,1
9,7,1,9,43,html-slider-response,43,166746,2076.0,1.0,0.1,question_agency,question_agency_line,0.0,0.0,-9.0,0.0,8.0,6.0,9.0,2.0,-0.12857703528585468,-0.02989151165236019,2
10,7,1,10,80,html-slider-response,80,312690,3857.0,1.0,0.1,question_agency,question_agency_line,0.0,0.0,-9.0,0.0,5.0,4.0,8.0,2.0,0.015812509268461714,0.13253437092740952,3
8,7,1,8,111,html-slider-response,111,439930,2235.0,5.0,0.1,question_agency,question_agency_line,0.0,0.0,-5.0,0.0,5.0,6.0,7.0,4.0,0.4016156671245627,0.10001107068004585,4
6,7,1,6,125,html-slider-response,125,496808,4146.0,10.0,0.1,question_agency,question_agency_line_inverted,1.0,0.0,0.0,0.0,9.0,5.0,13.0,2.0,0.0005395810523404945,-0.07449845252264296,5
11,7,1,11,168,html-slider-response,168,669596,2923.0,0.0,0.1,question_agency,question_agency_line_inverted,1.0,0.0,-10.0,0.0,6.0,7.0,4.0,6.0,-0.11231430735485792,0.026976600662459247,1
7,7,1,7,211,html-slider-response,211,861595,2725.0,0.0,0.1,question_agency,question_agency_line_inverted,1.0,0.0,-10.0,0.0,7.0,9.0,8.0,4.0,0.23599418178361664,-0.12562032738940995,2
17,7,1,17,40,html-slider-response,40,155664,2243.0,16.0,0.2,question_agency,question_agency_line,0.0,0.0,-4.0,0.0,7.0,6.0,5.0,4.0,0.5731815409494608,0.12661027162471708,3
14,7,1,14,68,html-slider-response,68,266609,2073.0,5.0,0.2,question_agency,question_agency_line,0.0,0.0,-15.0,0.0,6.0,7.0,17.0,7.0,-0.08247696930325948,-0.1964031711389291,4
12,7,1,12,108,html-slider-response,108,428689,2980.0,7.0,0.2,question_agency,question_agency_line,0.0,0.0,-13.0,0.0,6.0,9.0,17.0,8.0,0.0056768084629745435,0.3255344546157904,5
13,7,1,13,137,html-slider-response,137,546595,2647.0,9.0,0.2,question_agency,question_agency_line_inverted,1.0,0.0,-11.0,0.0,10.0,7.0,10.0,4.0,0.044325348593767314,-0.20002816415346064,1
16,7,1,16,183,html-slider-response,183,730248,2201.0,0.0,0.2,question_agency,question_agency_line_inverted,1.0,0.0,-20.0,0.0,3.0,6.0,8.0,12.0,-0.07049012475221729,0.020239406900232026,2
15,7,1,15,196,html-slider-response,196,802369,2907.0,28.0,0.2,question_agency,question_agency_line_inverted,1.0,0.0,8.0,0.0,7.0,7.0,8.0,1.0,0.6849786230383217,0.18656433026164712,3
18,7,1,18,28,html-slider-response,28,110282,4697.0,12.0,0.3,question_agency,question_agency_line,0.0,0.0,-18.0,0.0,9.0,7.0,8.0,4.0,0.07317201135389767,0.25936122876387296,4
22,7,1,22,74,html-slider-response,74,288917,1747.0,82.0,0.3,question_agency,question_agency_line,0.0,0.0,52.0,0.0,8.0,6.0,9.0,4.0,0.44179181063630263,0.4507332602004824,5
23,7,1,23,120,html-slider-response,120,472330,1737.0,40.0,0.3,question_agency,question_agency_line,0.0,0.0,10.0,0.0,7.0,8.0,22.0,2.0,-0.3020948854154528,0.11699307987612625,1
21,7,1,21,128,html-slider-response,128,511030,5217.0,26.0,0.3,question_agency,question_agency_line_inverted,1.0,0.0,-4.0,0.0,6.0,5.0,10.0,7.0,0.02432684784046525,-0.1037382043511937,2
20,7,1,20,180,html-slider-response,180,719003,3697.0,0.0,0.3,question_agency,question_agency_line_inverted,1.0,0.0,-30.0,0.0,9.0,7.0,6.0,4.0,0.2598599715589044,0.23006960496388804,3
19,7,1,19,205,html-slider-response,205,838039,3523.0,2.0,0.3,question_agency,question_agency_line_inverted,1.0,0.0,-28.0,0.0,4.0,5.0,8.0,2.0,-0.1777240675088534,0.21298037474112186,4
26,7,1,26,49,html-slider-response,49,192196,2783.0,13.0,0.4,question_agency,question_agency_line,0.0,0.0,-27.0,0.0,8.0,6.0,5.0,2.0,0.03973460111448973,-0.17082207541430103,5
25,7,1,25,83,html-slider-response,83,327384,5686.0,19.0,0.4,question_agency,question_agency_line,0.0,0.0,-21.0,0.0,9.0,8.0,10.0,8.0,0.24582913306024437,0.5121596766117731,1
24,7,1,24,90,html-slider-response,90,358539,1976.0,11.0,0.4,question_agency,question_agency_line,0.0,0.0,-29.0,0.0,9.0,6.0,6.0,5.0,0.2874374432070637,-0.2924651183066135,2
27,7,1,27,146,html-slider-response,146,581776,3096.0,11.0,0.4,question_agency,question_agency_line_inverted,1.0,0.0,-29.0,0.0,7.0,8.0,8.0,4.0,0.04347808521623962,0.3316605298938185,3
29,7,1,29,189,html-slider-response,189,758142,3755.0,12.0,0.4,question_agency,question_agency_line_inverted,1.0,0.0,-28.0,0.0,4.0,5.0,9.0,4.0,-0.22799738428833302,0.018715133985398938,4
28,7,1,28,199,html-slider-response,199,814143,2726.0,28.0,0.4,question_agency,question_agency_line_inverted,1.0,0.0,-12.0,0.0,9.0,8.0,18.0,0.0,-0.2369844598482909,0.0,5
33,7,1,33,46,html-slider-response,46,180406,4653.0,31.0,0.5,question_agency,question_agency_line,0.0,0.0,-19.0,0.0,6.0,6.0,7.0,4.0,0.06687851489314978,-0.24643701222984732,1
34,7,1,34,86,html-slider-response,86,346624,10233.0,67.0,0.5,question_agency,question_agency_line,0.0,0.0,17.0,0.0,8.0,5.0,0.0,0.0,0.0,0.0,2
35,7,1,35,96,html-slider-response,96,382449,3883.0,71.0,0.5,question_agency,question_agency_line,0.0,0.0,21.0,0.0,6.0,8.0,9.0,6.0,-0.1794846774476948,0.18241505181451612,3
30,7,1,30,155,html-slider-response,155,619875,2533.0,3.0,0.5,question_agency,question_agency_line_inverted,1.0,0.0,-47.0,0.0,7.0,7.0,7.0,4.0,0.10595318492153157,0.37895104035942223,4
31,7,1,31,162,html-slider-response,162,646119,2421.0,15.0,0.5,question_agency,question_agency_line_inverted,1.0,0.0,-35.0,0.0,3.0,5.0,5.0,4.0,0.4043296997939723,0.3061275329268165,5
32,7,1,32,223,html-slider-response,223,910749,3301.0,44.0,0.5,question_agency,question_agency_line_inverted,1.0,0.0,-6.0,0.0,9.0,8.0,7.0,4.0,-0.3638983716967475,0.1141373740096418,1
40,7,1,40,22,html-slider-response,22,83842,3931.0,40.0,0.6,question_agency,question_agency_line,0.0,0.0,-20.0,0.0,7.0,5.0,8.0,1.0,0.3170683384675003,-0.2541317395873892,2
39,7,1,39,77,html-slider-response,77,299827,1903.0,76.0,0.6,question_agency,question_agency_line,0.0,0.0,16.0,0.0,7.0,7.0,8.0,5.0,0.31187602411303217,0.25832446957630967,3
36,7,1,36,117,html-slider-response,117,461585,1647.0,70.0,0.6,question_agency,question_agency_line,0.0,0.0,10.0,0.0,6.0,5.0,10.0,6.0,0.20877703787161608,0.27067567811762583,4
41,7,1,41,140,html-slider-response,140,558585,2981.0,20.0,0.6,question_agency,question_agency_line_inverted,1.0,0.0,-40.0,0.0,4.0,8.0,5.0,4.0,0.23407230906207113,-0.31419937465586956,5
38,7,1,38,177,html-slider-response,177,706297,3652.0,78.0,0.6,question_agency,question_agency_line_inverted,1.0,0.0,18.0,0.0,7.0,7.0,6.0,5.0,-0.31256827651941343,0.02214491795863942,1
37,7,1,37,208,html-slider-response,208,849835,2752.0,22.0,0.6,question_agency,question_agency_line_inverted,1.0,0.0,-38.0,0.0,6.0,9.0,4.0,2.0,-0.5108521142702869,0.35846104502749504,2
43,7,1,43,34,html-slider-response,34,133116,2501.0,90.0,0.7,question_agency,question_agency_line,0.0,0.0,20.0,0.0,5.0,7.0,6.0,2.0,-0.6218837102300488,-0.07981345672390071,3
44,7,1,44,59,html-slider-response,59,229917,2899.0,77.0,0.7,question_agency,question_agency_line,0.0,0.0,7.0,0.0,8.0,11.0,8.0,4.0,-0.04737035035565187,-0.06280909750440106,4
47,7,1,47,114,html-slider-response,114,450933,1998.0,85.0,0.7,question_agency,question_agency_line,0.0,0.0,15.0,0.0,7.0,7.0,9.0,5.0,-0.2028515380345578,0.5227202582135625,5
46,7,1,46,134,html-slider-response,134,534941,2858.0,68.0,0.7,question_agency,question_agency_line_inverted,1.0,0.0,-2.0,0.0,8.0,8.0,5.0,4.0,-0.2198342440553531,0.12396113715619923,1
42,7,1,42,186,html-slider-response,186,745347,6089.0,49.0,0.7,question_agency,question_agency_line_inverted,1.0,0.0,-21.0,0.0,7.0,8.0,7.0,4.0,-0.05990286942538797,0.14075617312720784,2
45,7,1,45,220,html-slider-response,220,898391,2803.0,85.0,0.7,question_agency,question_agency_line_inverted,1.0,0.0,15.0,0.0,5.0,6.0,5.0,4.0,0.49817663222355185,0.5577447785721129,3
52,7,1,52,37,html-slider-response,37,144413,2289.0,81.0,0.8,question_agency,question_agency_line,0.0,0.0,1.0,0.0,4.0,10.0,5.0,1.0,0.091914486494119,-0.3044925668427092,4
50,7,1,50,62,html-slider-response,62,244464,5538.0,95.0,0.8,question_agency,question_agency_line,0.0,0.0,15.0,0.0,7.0,8.0,7.0,5.0,-0.011095882916583357,-0.5257655423670706,5
53,7,1,53,105,html-slider-response,105,416701,2438.0,94.0,0.8,question_agency,question_agency_line,0.0,0.0,14.0,0.0,10.0,5.0,7.0,4.0,0.22247764494477393,0.5243736553045446,1
51,7,1,51,131,html-slider-response,131,523074,3035.0,70.0,0.8,question_agency,question_agency_line_inverted,1.0,0.0,-10.0,0.0,10.0,7.0,5.0,4.0,0.28027570482330066,0.48714762785648047,2
49,7,1,49,171,html-slider-response,171,681607,3003.0,87.0,0.8,question_agency,question_agency_line_inverted,1.0,0.0,7.0,0.0,6.0,7.0,5.0,4.0,-0.06338031234549908,-0.3452718083561573,3
48,7,1,48,214,html-slider-response,214,874846,4244.0,69.0,0.8,question_agency,question_agency_line_inverted,1.0,0.0,-11.0,0.0,5.0,6.0,4.0,4.0,-0.40012020873702464,-0.14745701092279004,4
55,7,1,55,25,html-slider-response,25,96576,3727.0,80.0,0.9,question_agency,question_agency_line,0.0,0.0,-10.0,0.0,8.0,5.0,4.0,1.0,0.07784126042211277,-0.2127337159195125,5
56,7,1,56,65,html-slider-response,65,255530,2061.0,91.0,0.9,question_agency,question_agency_line,0.0,0.0,1.0,0.0,5.0,9.0,7.0,4.0,-0.07651610921888201,-0.3742421715960831,1
57,7,1,57,102,html-slider-response,102,405257,2622.0,98.0,0.9,question_agency,question_agency_line,0.0,0.0,8.0,0.0,7.0,8.0,9.0,6.0,-0.22415178713896047,0.08885886077717725,2
58,7,1,58,143,html-slider-response,143,569671,2079.0,92.0,0.9,question_agency,question_agency_line_inverted,1.0,0.0,2.0,0.0,7.0,7.0,7.0,5.0,0.2905806206251512,-0.16906792003202192,3
54,7,1,54,159,html-slider-response,159,634691,3979.0,93.0,0.9,question_agency,question_agency_line_inverted,1.0,0.0,3.0,0.0,9.0,5.0,4.0,4.0,0.19752183611540397,0.35869698097401553,4
59,7,1,59,193,html-slider-response,193,790407,4005.0,94.0,0.9,question_agency,question_agency_line_inverted,1.0,0.0,4.0,0.0,6.0,10.0,5.0,4.0,-0.0037886942798874856,0.05303023999155057,5
64,7,1,64,31,html-slider-response,31,121608,2320.0,100.0,1.0,question_agency,question_agency_line,0.0,0.0,0.0,0.0,5.0,6.0,6.0,4.0,0.4916906035882698,0.003646600992398433,1
62,7,1,62,71,html-slider-response,71,278161,2544.0,100.0,1.0,question_agency,question_agency_line,0.0,0.0,0.0,0.0,9.0,5.0,8.0,4.0,-0.03784868042412525,-0.5151773170932477,2
61,7,1,61,99,html-slider-response,99,393628,2172.0,100.0,1.0,question_agency,question_agency_line,0.0,0.0,0.0,0.0,7.0,5.0,8.0,4.0,0.32318600807796255,-0.005196077973764202,3
63,7,1,63,152,html-slider-response,152,608334,2184.0,100.0,1.0,question_agency,question_agency_line_inverted,1.0,0.0,0.0,0.0,8.0,8.0,5.0,4.0,-0.5437448292744097,0.13125076304134306,4
65,7,1,65,174,html-slider-response,174,693639,3025.0,100.0,1.0,question_agency,question_agency_line_inverted,1.0,0.0,0.0,0.0,7.0,10.0,5.0,2.0,0.20076316992967247,-0.22543402316403982,5
60,7,1,60,217,html-slider-response,217,886529,2624.0,100.0,1.0,question_agency,question_agency_line_inverted,1.0,0.0,0.0,0.0,9.0,7.0,4.0,3.0,0.1560998297699553,-0.4197296534024775,1
1,8,0,1,28,html-slider-response,28,144739,4072.0,0.0,0.0,question_agency,question_agency_line,0.0,0.0,0.0,0.0,9.0,7.0,16.0,20.0,0.15223634589000523,-0.16397609581291894,1
4,8,0,4,65,html-slider-response,65,321642,3327.0,49.0,0.0,question_agency,question_agency_line,0.0,0.0,49.0,0.0,8.0,8.0,24.0,32.0,-0.06282510857323793,0.15792498610466166,2
3,8,0,3,96,html-slider-response,96,444294,2693.0,25.0,0.0,question_agency,question_agency_line,0.0,0.0,25.0,0.0,5.0,7.0,22.0,26.0,0.28720747488234344,-0.07946942138630057,3
0,8,0,0,131,html-slider-response,131,596184,4677.0,0.0,0.0,question_agency,question_agency_line_inverted,1.0,0.0,0.0,0.0,8.0,7.0,10.0,58.0,0.13649585480515083,-0.19743907453276532,4
5,8,0,5,171,html-slider-response,171,764494,4106.0,0.0,0.0,question_agency,question_agency_line_inverted,1.0,0.0,0.0,0.0,5.0,9.0,0.0,0.0,0.0,0.0,5
2,8,0,2,214,html-slider-response,214,1029824,2900.0,0.0,0.0,question_agency,question_agency_line_inverted,1.0,0.0,0.0,0.0,7.0,10.0,0.0,0.0,0.0,0.0,1
11,8,0,11,52,html-slider-response,52,269504,3069.0,63.0,0.1,question_agency,question_agency_line,0.0,0.0,53.0,0.0,9.0,8.0,10.0,23.0,-0.02455868675195179,0.07291826406706596,2
10,8,0,10,80,html-slider-response,80,381396,2608.0,50.0,0.1,question_agency,question_agency_line,0.0,0.0,40.0,0.0,9.0,10.0,32.0,21.0,-0.037355179316090246,0.07456211337938948,3
8,8,0,8,117,html-slider-response,117,533074,3243.0,32.0,0.1,question_agency,question_agency_line,0.0,0.0,22.0,0.0,7.0,4.0,29.0,33.0,0.21732770583349345,-0.3771407130457337,4
9,8,0,9,137,html-slider-response,137,621177,2900.0,50.0,0.1,question_agency,question_agency_line_inverted,1.0,0.0,40.0,0.0,5.0,7.0,12.0,37.0,-0.018439015158672387,-0.46607783953096715,5
7,8,0,7,177,html-slider-response,177,792450,2857.0,0.0,0.1,question_agency,question_agency_line_inverted,1.0,0.0,-10.0,0.0,7.0,10.0,0.0,0.0,0.0,0.0,1
6,8,0,6,199,html-slider-response,199,965419,3354.0,0.0,0.1,question_agency,question_agency_line_inverted,1.0,0.0,-10.0,0.0,10.0,11.0,0.0,0.0,0.0,0.0,2
14,8,0,14,46,html-slider-response,46,245794,2843.0,59.0,0.2,question_agency,question_agency_line,0.0,0.0,39.0,0.0,7.0,5.0,21.0,24.0,0.2327694605666624,-0.3153456246992925,3
13,8,0,13,59,html-slider-response,59,296994,3200.0,52.0,0.2,question_agency,question_agency_line,0.0,0.0,32.0,0.0,3.0,8.0,18.0,31.0,0.1401628373477197,0.4414923788573614,4
16,8,0,16,102,html-slider-response,102,471564,5538.0,32.0,0.2,question_agency,question_agency_line,0.0,0.0,12.0,0.0,7.0,6.0,20.0,27.0,-0.17628874867072886,-0.32452093159254636,5
17,8,0,17,125,html-slider-response,125,568630,4873.0,15.0,0.2,question_agency,question_agency_line_inverted,1.0,0.0,-5.0,0.0,6.0,6.0,21.0,38.0,-0.20904864398843656,0.02058616209961417,1
12,8,0,12,186,html-slider-response,186,833441,6987.0,0.0,0.2,question_agency,question_agency_line_inverted,1.0,0.0,-20.0,0.0,7.0,7.0,0.0,0.0,0.0,0.0,2
15,8,0,15,202,html-slider-response,202,979018,4585.0,0.0,0.2,question_agency,question_agency_line_inverted,1.0,0.0,-20.0,0.0,7.0,4.0,0.0,0.0,0.0,0.0,3
22,8,0,22,31,html-slider-response,31,162794,9043.0,35.0,0.3,question_agency,question_agency_line,0.0,0.0,5.0,0.0,5.0,4.0,27.0,29.0,0.1097314747183135,-0.26287074377131536,4
21,8,0,21,68,html-slider-response,68,332897,2250.0,50.0,0.3,question_agency,question_agency_line,0.0,0.0,20.0,0.0,5.0,6.0,16.0,44.0,-0.4186168919211977,-0.006078007203636447,5
19,8,0,19,108,html-slider-response,108,497970,3544.0,29.0,0.3,question_agency,question_agency_line,0.0,0.0,-1.0,0.0,6.0,6.0,8.0,40.0,0.10647684529985171,-0.2542298562000295,1
18,8,0,18,134,html-slider-response,134,609267,4073.0,47.0,0.3,question_agency,question_agency_line_inverted,1.0,0.0,17.0,0.0,7.0,8.0,14.0,33.0,0.3551477402672515,0.19168180652952468,2
23,8,0,23,180,html-slider-response,180,804682,3219.0,0.0,0.3,question_agency,question_agency_line_inverted,1.0,0.0,-30.0,0.0,8.0,7.0,0.0,0.0,0.0,0.0,3
20,8,0,20,223,html-slider-response,223,1066737,2724.0,0.0,0.3,question_agency,question_agency_line_inverted,1.0,0.0,-30.0,0.0,6.0,8.0,0.0,0.0,0.0,0.0,4
26,8,0,26,34,html-slider-response,34,175483,3675.0,0.0,0.4,question_agency,question_agency_line,0.0,0.0,-40.0,0.0,7.0,9.0,19.0,17.0,0.1990661478531329,0.15344589360164987,5
29,8,0,29,77,html-slider-response,77,369773,2689.0,46.0,0.4,question_agency,question_agency_line,0.0,0.0,6.0,0.0,8.0,5.0,24.0,26.0,0.22711373010910463,-0.10214270803693619,1
27,8,0,27,111,html-slider-response,111,509227,2245.0,28.0,0.4,question_agency,question_agency_line,0.0,0.0,-12.0,0.0,2.0,5.0,18.0,37.0,-0.07067516494963229,-0.11787558793063144,2
24,8,0,24,155,html-slider-response,155,698894,3917.0,0.0,0.4,question_agency,question_agency_line_inverted,1.0,0.0,-40.0,0.0,8.0,9.0,0.0,0.0,0.0,0.0,3
25,8,0,25,183,html-slider-response,183,817442,3750.0,0.0,0.4,question_agency,question_agency_line_inverted,1.0,0.0,-40.0,0.0,6.0,10.0,0.0,0.0,0.0,0.0,4
28,8,0,28,217,html-slider-response,217,1042987,4150.0,0.0,0.4,question_agency,question_agency_line_inverted,1.0,0.0,-40.0,0.0,6.0,6.0,0.0,0.0,0.0,0.0,5
33,8,0,33,22,html-slider-response,22,118835,3857.0,47.0,0.5,question_agency,question_agency_line,0.0,0.0,-3.0,0.0,7.0,10.0,18.0,20.0,-0.2954387236936542,0.1308151752113934,1
35,8,0,35,83,html-slider-response,83,393732,3324.0,48.0,0.5,question_agency,question_agency_line,0.0,0.0,-2.0,0.0,3.0,8.0,16.0,42.0,0.4418415379865706,-0.06969012568837635,2
34,8,0,34,105,html-slider-response,105,485418,4840.0,21.0,0.5,question_agency,question_agency_line,0.0,0.0,-29.0,0.0,7.0,4.0,8.0,29.0,-0.15163375002808643,0.27212325862365366,3
31,8,0,31,152,html-slider-response,152,685975,4545.0,73.0,0.5,question_agency,question_agency_line_inverted,1.0,0.0,23.0,0.0,6.0,7.0,2.0,0.0,0.05750165910058039,0.0,4
30,8,0,30,162,html-slider-response,162,725997,3573.0,0.0,0.5,question_agency,question_agency_line_inverted,1.0,0.0,-50.0,0.0,7.0,3.0,0.0,0.0,0.0,0.0,5
32,8,0,32,208,html-slider-response,208,1005334,4053.0,0.0,0.5,question_agency,question_agency_line_inverted,1.0,0.0,-50.0,0.0,7.0,7.0,0.0,0.0,0.0,0.0,1
37,8,0,37,37,html-slider-response,37,206518,22022.0,67.0,0.6,question_agency,question_agency_line,0.0,0.0,7.0,0.0,6.0,7.0,22.0,22.0,0.00711764549424089,0.2552510678358608,2
41,8,0,41,62,html-slider-response,62,309300,3750.0,53.0,0.6,question_agency,question_agency_line,0.0,0.0,-7.0,0.0,7.0,6.0,7.0,15.0,-0.07827764676658969,-0.47403043156707525,3
36,8,0,36,120,html-slider-response,120,545690,3599.0,34.0,0.6,question_agency,question_agency_line,0.0,0.0,-26.0,0.0,8.0,8.0,26.0,16.0,-0.05744305923372917,0.27476865657447036,4
39,8,0,39,143,html-slider-response,143,646362,2916.0,26.0,0.6,question_agency,question_agency_line_inverted,1.0,0.0,-34.0,0.0,8.0,6.0,15.0,38.0,0.15467797828543714,-0.003821305814111635,5
40,8,0,40,189,html-slider-response,189,847912,5455.0,0.0,0.6,question_agency,question_agency_line_inverted,1.0,0.0,-60.0,0.0,8.0,10.0,0.0,0.0,0.0,0.0,1
38,8,0,38,205,html-slider-response,205,992272,4244.0,0.0,0.6,question_agency,question_agency_line_inverted,1.0,0.0,-60.0,0.0,7.0,8.0,0.0,0.0,0.0,0.0,2
42,8,0,42,40,html-slider-response,40,221118,5587.0,59.0,0.7,question_agency,question_agency_line,0.0,0.0,-11.0,0.0,7.0,6.0,3.0,4.0,0.061743245473771434,0.021441198805226307,3
44,8,0,44,86,html-slider-response,86,406359,3611.0,52.0,0.7,question_agency,question_agency_line,0.0,0.0,-18.0,0.0,9.0,7.0,9.0,30.0,-0.032299185736177946,-0.05551605834372138,4
47,8,0,47,90,html-slider-response,90,420671,2764.0,47.0,0.7,question_agency,question_agency_line,0.0,0.0,-23.0,0.0,5.0,6.0,17.0,24.0,0.06580192537999277,-0.10850966536119978,5
45,8,0,45,128,html-slider-response,128,582498,4860.0,50.0,0.7,question_agency,question_agency_line_inverted,1.0,0.0,-20.0,0.0,7.0,7.0,34.0,22.0,-0.2840114643365816,0.05874906779189405,1
46,8,0,46,174,html-slider-response,174,780581,7074.0,29.0,0.7,question_agency,question_agency_line_inverted,1.0,0.0,-41.0,0.0,6.0,7.0,0.0,0.0,0.0,0.0,2
43,8,0,43,220,html-slider-response,220,1055002,3008.0,0.0,0.7,question_agency,question_agency_line_inverted,1.0,0.0,-70.0,0.0,7.0,5.0,0.0,0.0,0.0,0.0,3
51,8,0,51,43,html-slider-response,43,233937,3803.0,57.0,0.8,question_agency,question_agency_line,0.0,0.0,-23.0,0.0,5.0,9.0,20.0,27.0,-0.2128534748703571,-0.1308532368850155,4
49,8,0,49,74,html-slider-response,74,358078,3978.0,44.0,0.8,question_agency,question_agency_line,0.0,0.0,-36.0,0.0,6.0,9.0,27.0,21.0,0.020777346324770386,0.06811814472641486,5
48,8,0,48,99,html-slider-response,99,457015,3714.0,45.0,0.8,question_agency,question_agency_line,0.0,0.0,-35.0,0.0,6.0,8.0,22.0,27.0,0.05343684803616223,0.17768590444864613,1
50,8,0,50,140,html-slider-response,140,634430,4246.0,38.0,0.8,question_agency,question_agency_line_inverted,1.0,0.0,-42.0,0.0,10.0,6.0,22.0,25.0,0.086557148858005,2.5110342020656773e-05,2
53,8,0,53,159,html-slider-response,159,713413,4041.0,0.0,0.8,question_agency,question_agency_line_inverted,1.0,0.0,-80.0,0.0,4.0,6.0,0.0,0.0,0.0,0.0,3
52,8,0,52,196,html-slider-response,196,953048,3455.0,0.0,0.8,question_agency,question_agency_line_inverted,1.0,0.0,-80.0,0.0,6.0,8.0,0.0,0.0,0.0,0.0,4
54,8,0,54,25,html-slider-response,25,131651,3809.0,100.0,0.9,question_agency,question_agency_line,0.0,0.0,10.0,0.0,7.0,7.0,9.0,15.0,-0.2103507408732351,-0.1416643138200524,5
57,8,0,57,71,html-slider-response,71,345090,3185.0,55.0,0.9,question_agency,question_agency_line,0.0,0.0,-35.0,0.0,6.0,8.0,16.0,33.0,-0.25252115176744383,-0.3161005921487537,1
58,8,0,58,93,html-slider-response,93,432590,2912.0,52.0,0.9,question_agency,question_agency_line,0.0,0.0,-38.0,0.0,6.0,10.0,21.0,20.0,-0.3074383349122197,-0.2035987254480218,2
56,8,0,56,149,html-slider-response,149,672421,3256.0,88.0,0.9,question_agency,question_agency_line_inverted,1.0,0.0,-2.0,0.0,8.0,10.0,15.0,22.0,0.05114397437000637,0.04137413152567551,3
59,8,0,59,168,html-slider-response,168,751376,3704.0,0.0,0.9,question_agency,question_agency_line_inverted,1.0,0.0,-90.0,0.0,2.0,5.0,0.0,0.0,0.0,0.0,4
55,8,0,55,193,html-slider-response,193,940588,10944.0,0.0,0.9,question_agency,question_agency_line_inverted,1.0,0.0,-90.0,0.0,8.0,8.0,0.0,0.0,0.0,0.0,5
61,8,0,61,49,html-slider-response,49,257423,2614.0,56.0,1.0,question_agency,question_agency_line,0.0,0.0,-44.0,0.0,7.0,6.0,12.0,22.0,0.04657616829387594,0.44513239226898454,1
60,8,0,60,56,html-slider-response,56,284778,3600.0,58.0,1.0,question_agency,question_agency_line,0.0,0.0,-42.0,0.0,8.0,6.0,13.0,21.0,0.2703824588656709,0.06926846308138854,2
63,8,0,63,114,html-slider-response,114,520968,2725.0,33.0,1.0,question_agency,question_agency_line,0.0,0.0,-67.0,0.0,7.0,10.0,19.0,32.0,0.18321318288639038,0.00524483953392051,3
64,8,0,64,146,html-slider-response,146,660152,4773.0,97.0,1.0,question_agency,question_agency_line_inverted,1.0,0.0,-3.0,0.0,5.0,8.0,29.0,35.0,0.12829736787945842,-0.02489119547217899,4
65,8,0,65,165,html-slider-response,165,738665,3657.0,0.0,1.0,question_agency,question_agency_line_inverted,1.0,0.0,-100.0,0.0,5.0,7.0,0.0,0.0,0.0,0.0,5
62,8,0,62,211,html-slider-response,211,1017907,3558.0,0.0,1.0,question_agency,question_agency_line_inverted,1.0,0.0,-100.0,0.0,8.0,8.0,0.0,0.0,0.0,0.0,1
1,9,1,1,34,html-slider-response,34,162027,3592.0,0.0,0.0,question_agency,question_agency_line,0.0,0.0,0.0,0.0,7.0,11.0,14.0,7.0,0.31121642652166603,0.3290470616934205,1
4,9,1,4,86,html-slider-response,86,363585,2858.0,3.0,0.0,question_agency,question_agency_line,0.0,0.0,3.0,0.0,5.0,3.0,0.0,35.0,0.0,-0.3983286813670575,2
2,9,1,2,108,html-slider-response,108,454032,1980.0,0.0,0.0,question_agency,question_agency_line,0.0,0.0,0.0,0.0,6.0,9.0,20.0,6.0,0.21709943715797375,0.11497940628942767,3
3,9,1,3,125,html-slider-response,125,527831,3545.0,0.0,0.0,question_agency,question_agency_line_inverted,1.0,0.0,0.0,0.0,4.0,3.0,2.0,20.0,0.3015528477077748,-0.015699304506561217,4
5,9,1,5,162,html-slider-response,162,682183,4987.0,2.0,0.0,question_agency,question_agency_line_inverted,1.0,0.0,2.0,0.0,6.0,5.0,0.0,15.0,0.0,0.2723782690392291,5
0,9,1,0,214,html-slider-response,214,895947,3598.0,30.0,0.0,question_agency,question_agency_line_inverted,1.0,0.0,30.0,0.0,9.0,7.0,4.0,4.0,0.2855173684125348,0.23705351893344345,1
6,9,1,6,22,html-slider-response,22,115124,3054.0,7.0,0.1,question_agency,question_agency_line,0.0,0.0,-3.0,0.0,5.0,9.0,11.0,4.0,0.1513599151344569,0.1363627887714264,2
8,9,1,8,65,html-slider-response,65,279345,3733.0,0.0,0.1,question_agency,question_agency_line,0.0,0.0,-10.0,0.0,6.0,6.0,8.0,15.0,-0.13759627289084175,0.22323864185404466,3
9,9,1,9,99,html-slider-response,99,419632,5865.0,53.0,0.1,question_agency,question_agency_line,0.0,0.0,43.0,0.0,7.0,6.0,6.0,12.0,0.36489351515096097,0.007099880319800271,4
10,9,1,10,149,html-slider-response,149,628312,2895.0,0.0,0.1,question_agency,question_agency_line_inverted,1.0,0.0,-10.0,0.0,7.0,5.0,19.0,12.0,0.16234913993445993,-0.3012992698298485,5
11,9,1,11,159,html-slider-response,159,668183,2710.0,4.0,0.1,question_agency,question_agency_line_inverted,1.0,0.0,-6.0,0.0,5.0,7.0,5.0,8.0,0.07424362467731643,0.11204939164707037,1
7,9,1,7,202,html-slider-response,202,845806,3399.0,38.0,0.1,question_agency,question_agency_line_inverted,1.0,0.0,28.0,0.0,6.0,10.0,12.0,10.0,0.04092849809372599,0.062386424740828235,2
14,9,1,14,43,html-slider-response,43,196763,2431.0,0.0,0.2,question_agency,question_agency_line,0.0,0.0,-20.0,0.0,9.0,7.0,4.0,20.0,-0.31768019338941417,0.16811516844067567,3
13,9,1,13,77,html-slider-response,77,329089,4204.0,27.0,0.2,question_agency,question_agency_line,0.0,0.0,7.0,0.0,5.0,5.0,6.0,3.0,0.11481091097151896,-0.11476621442960329,4
16,9,1,16,96,html-slider-response,96,404752,3567.0,46.0,0.2,question_agency,question_agency_line,0.0,0.0,26.0,0.0,10.0,10.0,8.0,8.0,0.31724986929601035,0.20685411601832962,5
12,9,1,12,152,html-slider-response,152,640199,2878.0,0.0,0.2,question_agency,question_agency_line_inverted,1.0,0.0,-20.0,0.0,9.0,8.0,10.0,4.0,-0.3231053127226893,-0.2389548561515421,1
17,9,1,17,189,html-slider-response,189,789573,4855.0,1.0,0.2,question_agency,question_agency_line_inverted,1.0,0.0,-19.0,0.0,6.0,8.0,8.0,15.0,-0.4209764080095534,-0.06216949272535457,2
15,9,1,15,193,html-slider-response,193,803148,3035.0,19.0,0.2,question_agency,question_agency_line_inverted,1.0,0.0,-1.0,0.0,8.0,6.0,19.0,12.0,0.06463794694322919,-0.1797260136099086,3
21,9,1,21,37,html-slider-response,37,173491,2450.0,17.0,0.3,question_agency,question_agency_line,0.0,0.0,-13.0,0.0,10.0,9.0,7.0,22.0,0.013432059324391924,0.03443402525132572,4
19,9,1,19,62,html-slider-response,62,266601,2285.0,25.0,0.3,question_agency,question_agency_line,0.0,0.0,-5.0,0.0,9.0,6.0,5.0,20.0,-0.14043439544326572,-0.09538792262108989,5
18,9,1,18,117,html-slider-response,117,493744,4738.0,38.0,0.3,question_agency,question_agency_line,0.0,0.0,8.0,0.0,4.0,7.0,8.0,4.0,-0.45315111099463284,0.25363404660027233,1
23,9,1,23,128,html-slider-response,128,541135,4298.0,2.0,0.3,question_agency,question_agency_line_inverted,1.0,0.0,-28.0,0.0,10.0,8.0,20.0,12.0,-0.004489949863823313,0.200388253809314,2
20,9,1,20,186,html-slider-response,186,775709,2099.0,0.0,0.3,question_agency,question_agency_line_inverted,1.0,0.0,-30.0,0.0,5.0,6.0,20.0,20.0,0.16374448132703642,0.3999484425399616,3
22,9,1,22,199,html-slider-response,199,833396,7498.0,44.0,0.3,question_agency,question_agency_line_inverted,1.0,0.0,14.0,0.0,9.0,6.0,6.0,10.0,-0.12916360948350747,-0.3231310753413692,4
28,9,1,28,25,html-slider-response,25,126939,2798.0,36.0,0.4,question_agency,question_agency_line,0.0,0.0,-4.0,0.0,7.0,8.0,9.0,6.0,0.17216016752251379,0.04903916010839499,5
29,9,1,29,80,html-slider-response,80,340977,2877.0,10.0,0.4,question_agency,question_agency_line,0.0,0.0,-30.0,0.0,8.0,8.0,3.0,12.0,0.4072885807197056,-0.2763907733931973,1
26,9,1,26,105,html-slider-response,105,443039,2879.0,57.0,0.4,question_agency,question_agency_line,0.0,0.0,17.0,0.0,7.0,6.0,4.0,7.0,0.4799244219899882,-0.14502216851023095,2
24,9,1,24,155,html-slider-response,155,655057,5845.0,0.0,0.4,question_agency,question_agency_line_inverted,1.0,0.0,-40.0,0.0,7.0,7.0,7.0,20.0,0.17593927330925052,-0.1990135938289068,3
25,9,1,25,165,html-slider-response,165,693358,2162.0,5.0,0.4,question_agency,question_agency_line_inverted,1.0,0.0,-35.0,0.0,5.0,9.0,4.0,17.0,0.21582839518257343,-0.1511987988377639,4
27,9,1,27,223,html-slider-response,223,934475,3821.0,74.0,0.4,question_agency,question_agency_line_inverted,1.0,0.0,34.0,0.0,9.0,7.0,2.0,8.0,0.0473998650481015,0.1258717587506092,5
32,9,1,32,28,html-slider-response,28,137699,1754.0,29.0,0.5,question_agency,question_agency_line,0.0,0.0,-21.0,0.0,7.0,5.0,6.0,11.0,-0.36268580470382117,-0.04446816691554857,1
35,9,1,35,71,html-slider-response,71,303385,2133.0,57.0,0.5,question_agency,question_agency_line,0.0,0.0,7.0,0.0,6.0,6.0,3.0,18.0,-0.35049094023741195,0.42151087268301274,2
30,9,1,30,111,html-slider-response,111,467400,4359.0,64.0,0.5,question_agency,question_agency_line,0.0,0.0,14.0,0.0,8.0,7.0,3.0,4.0,-0.12917829314575613,-0.0317594983133018,3
34,9,1,34,134,html-slider-response,134,566495,3247.0,33.0,0.5,question_agency,question_agency_line_inverted,1.0,0.0,-17.0,0.0,10.0,8.0,4.0,10.0,-0.03361924355999725,-0.25343378640709024,4
