Experiment,,SubNum,Include,level_0,index,trial_type,trial_index,time_elapsed,rt,response,control_level,task_id,screen_id,difference,Key_Release_sim_x,Key_Release_sim_y,Key_Release_p1_x,Key_Release_p1_y,Correlation_x,Correlation_y,block,Confidence,RT_Confidence
1,3,1,0,3,46,html-slider-response,46,256016,6542,11,0,question_agency,question_agency_line,11,5,6,0,0,0,0,1,,
1,4,1,0,4,65,html-slider-response,65,359588,4938,66,0,question_agency,question_agency_line,66,7,7,0,0,0,0,2,,
1,0,1,0,0,105,html-slider-response,105,548011,2884,77,0,question_agency,question_agency_line,77,8,6,0,0,0,0,3,,
1,2,1,0,2,142,html-slider-response,142,966352,6501,31,0,question_agency,question_agency_line,31,9,8,0,0,0,0,4,,
1,1,1,0,1,182,html-slider-response,182,1525894,6670,49,0,question_agency,question_agency_line,49,5,8,0,0,0,0,5,,
1,8,1,0,8,49,html-slider-response,49,268181,3146,18,0.1,question_agency,question_agency_line,8,6,6,0,0,0,0,1,,
1,9,1,0,9,59,html-slider-response,59,331473,2655,70,0.1,question_agency,question_agency_line,60,7,5,0,0,0,0,2,,
1,7,1,0,7,114,html-slider-response,114,587676,6818,26,0.1,question_agency,question_agency_line,16,8,2,0,0,0,0,3,,
1,6,1,0,6,145,html-slider-response,145,982976,7613,50,0.1,question_agency,question_agency_line,40,12,9,0,0,0,0,4,,
1,5,1,0,5,167,html-slider-response,167,1424119,6875,50,0.1,question_agency,question_agency_line,40,7,8,0,0,0,0,5,,
1,14,1,0,14,40,html-slider-response,40,205744,5822,86,0.2,question_agency,question_agency_line,66,8,8,0,0,0,0,1,,
1,12,1,0,12,74,html-slider-response,74,400807,7527,73,0.2,question_agency,question_agency_line,53,4,8,0,0,0,0,2,,
1,11,1,0,11,111,html-slider-response,111,571849,2668,70,0.2,question_agency,question_agency_line,50,6,7,0,0,0,0,3,,
1,10,1,0,10,139,html-slider-response,139,950840,22304,13,0.2,question_agency,question_agency_line,-7,6,6,0,0,0,0,4,,
1,13,1,0,13,188,html-slider-response,188,1557659,10417,58,0.2,question_agency,question_agency_line,38,9,8,0,0,0,0,5,,
1,16,1,0,16,52,html-slider-response,52,279876,2684,61,0.3,question_agency,question_agency_line,31,6,5,0,0,0,0,1,,
1,18,1,0,18,83,html-slider-response,83,443674,4575,69,0.3,question_agency,question_agency_line,39,7,8,0,0,0,0,2,,
1,19,1,0,19,99,html-slider-response,99,524066,7775,72,0.3,question_agency,question_agency_line,42,6,7,0,0,0,0,3,,
1,17,1,0,17,124,html-slider-response,124,750552,3923,63,0.3,question_agency,question_agency_line,33,5,8,0,0,0,0,4,,
1,15,1,0,15,161,html-slider-response,161,1379356,2959,63,0.3,question_agency,question_agency_line,33,9,6,0,0,0,0,5,,
1,21,1,0,21,31,html-slider-response,31,166113,28798,44,0.4,question_agency,question_agency_line,4,6,9,0,0,0,0,1,,
1,20,1,0,20,56,html-slider-response,56,319808,2849,77,0.4,question_agency,question_agency_line,37,4,10,0,0,0,0,2,,
1,23,1,0,23,96,html-slider-response,96,507284,8427,75,0.4,question_agency,question_agency_line,35,9,6,0,0,0,0,3,,
1,24,1,0,24,127,html-slider-response,127,776525,16963,75,0.4,question_agency,question_agency_line,35,8,10,0,0,0,0,4,,
1,22,1,0,22,185,html-slider-response,185,1538233,3327,25,0.4,question_agency,question_agency_line,-15,8,8,0,0,0,0,5,,
1,26,1,0,26,25,html-slider-response,25,111904,10462,7,0.5,question_agency,question_agency_line,-43,4,5,0,0,0,0,1,,
1,27,1,0,27,68,html-slider-response,68,371437,2837,66,0.5,question_agency,question_agency_line,16,6,8,0,0,0,0,2,,
1,25,1,0,25,102,html-slider-response,102,536118,3042,32,0.5,question_agency,question_agency_line,-18,6,6,0,0,0,0,3,,
1,29,1,0,29,148,html-slider-response,148,1013001,21016,36,0.5,question_agency,question_agency_line,-14,5,5,0,0,0,0,4,,
1,28,1,0,28,158,html-slider-response,158,1367378,96255,57,0.5,question_agency,question_agency_line,7,6,3,0,0,0,0,5,,
1,30,1,0,30,34,html-slider-response,34,177979,2857,61,0.6,question_agency,question_agency_line,1,6,7,0,0,0,0,1,,
1,31,1,0,31,86,html-slider-response,86,456853,4172,45,0.6,question_agency,question_agency_line,-15,8,7,0,0,0,0,2,,
1,33,1,0,33,117,html-slider-response,117,601973,5287,42,0.6,question_agency,question_agency_line,-18,5,6,0,0,0,0,3,,
1,34,1,0,34,151,html-slider-response,151,1037802,15788,52,0.6,question_agency,question_agency_line,-8,7,4,0,0,0,0,4,,
1,32,1,0,32,173,html-slider-response,173,1465755,19125,46,0.6,question_agency,question_agency_line,-14,10,8,0,0,0,0,5,,
1,36,1,0,36,28,html-slider-response,28,128307,7393,16,0.7,question_agency,question_agency_line,-54,8,6,0,0,0,0,1,,
1,39,1,0,39,80,html-slider-response,80,430089,5325,72,0.7,question_agency,question_agency_line,2,9,8,0,0,0,0,2,,
1,37,1,0,37,90,html-slider-response,90,475566,4097,37,0.7,question_agency,question_agency_line,-33,8,3,0,0,0,0,3,,
1,38,1,0,38,133,html-slider-response,133,800208,2229,68,0.7,question_agency,question_agency_line,-2,6,2,0,0,0,0,4,,
1,35,1,0,35,170,html-slider-response,170,1437619,4490,49,0.7,question_agency,question_agency_line,-21,8,6,0,0,0,0,5,,
1,40,1,0,40,37,html-slider-response,37,190912,3923,26,0.8,question_agency,question_agency_line,-54,8,8,0,0,0,0,1,,
1,44,1,0,44,77,html-slider-response,77,415757,5940,71,0.8,question_agency,question_agency_line,-9,7,8,0,0,0,0,2,,
1,41,1,0,41,93,html-slider-response,93,489849,5274,58,0.8,question_agency,question_agency_line,-22,2,7,0,0,0,0,3,,
1,42,1,0,42,154,html-slider-response,154,1049586,2773,10,0.8,question_agency,question_agency_line,-70,6,8,0,0,0,0,4,,
1,43,1,0,43,176,html-slider-response,176,1497298,22532,50,0.8,question_agency,question_agency_line,-30,7,7,0,0,0,0,5,,
1,47,1,0,47,22,html-slider-response,22,92433,10326,47,0.9,question_agency,question_agency_line,-43,6,4,0,0,0,0,1,,
1,48,1,0,48,62,html-slider-response,62,345638,5155,66,0.9,question_agency,question_agency_line,-24,5,4,0,0,0,0,2,,
1,45,1,0,45,108,html-slider-response,108,560171,3150,38,0.9,question_agency,question_agency_line,-52,6,7,0,0,0,0,3,,
1,49,1,0,49,130,html-slider-response,130,788967,3430,54,0.9,question_agency,question_agency_line,-36,8,6,0,0,0,0,4,,
1,46,1,0,46,179,html-slider-response,179,1510211,3901,13,0.9,question_agency,question_agency_line,-77,6,7,0,0,0,0,5,,
1,51,1,0,51,43,html-slider-response,43,240465,25711,23,1,question_agency,question_agency_line,-77,7,7,0,0,0,0,1,,
1,52,1,0,52,71,html-slider-response,71,384271,3823,60,1,question_agency,question_agency_line,-40,7,8,0,0,0,0,2,,
1,53,1,0,53,120,html-slider-response,120,641991,31005,56,1,question_agency,question_agency_line,-44,9,7,0,0,0,0,3,,
1,50,1,0,50,136,html-slider-response,136,919518,49430,60,1,question_agency,question_agency_line,-40,10,11,0,0,0,0,4,,
1,54,1,0,54,164,html-slider-response,164,1408232,19859,16,1,question_agency,question_agency_line,-84,5,6,0,0,0,0,5,,
1,1,2,1,1,28,html-slider-response,28,167769,3821,0,0,question_agency,question_agency_line,0,7,6,26,18,-0.452255,0.139702149,1,,
1,3,2,1,3,77,html-slider-response,77,397151,2568,0,0,question_agency,question_agency_line,0,2,6,37,30,-0.12655819,0.082885497,2,,
1,0,2,1,0,114,html-slider-response,114,557148,3669,0,0,question_agency,question_agency_line,0,9,8,21,8,0.173349307,0.188010075,3,,
1,4,2,1,4,151,html-slider-response,151,727912,3692,0,0,question_agency,question_agency_line,0,9,7,25,8,-0.260575957,0.111883757,4,,
1,2,2,1,2,176,html-slider-response,176,834808,4708,0,0,question_agency,question_agency_line,0,4,9,15,14,-0.120948379,-0.068942288,5,,
1,6,2,1,6,37,html-slider-response,37,205118,2951,0,0.1,question_agency,question_agency_line,-10,10,11,40,10,-0.119024636,0.03262935,1,,
1,5,2,1,5,62,html-slider-response,62,336881,14842,39,0.1,question_agency,question_agency_line,29,5,2,17,12,-0.278565808,-0.045556077,2,,
1,8,2,1,8,108,html-slider-response,108,532029,4023,8,0.1,question_agency,question_agency_line,-2,5,6,24,6,0.087451849,0.312115329,3,,
1,9,2,1,9,142,html-slider-response,142,690241,3717,32,0.1,question_agency,question_agency_line,22,6,7,43,31,-0.047862067,0.020488805,4,,
1,7,2,1,7,173,html-slider-response,173,821095,2989,2,0.1,question_agency,question_agency_line,-8,6,5,14,6,-0.296392181,0.111212725,5,,
1,11,2,1,11,40,html-slider-response,40,221574,7450,5,0.2,question_agency,question_agency_line,-15,7,4,40,6,-0.377363415,0.18354675,1,,
1,13,2,1,13,86,html-slider-response,86,435805,4089,33,0.2,question_agency,question_agency_line,13,6,9,20,4,-0.171915551,0.182608559,2,,
1,10,2,1,10,117,html-slider-response,117,569875,3711,0,0.2,question_agency,question_agency_line,-20,3,6,28,22,-0.158871079,0.072771958,3,,
1,14,2,1,14,136,html-slider-response,136,665336,7247,8,0.2,question_agency,question_agency_line,-12,3,4,17,16,0.098525027,-0.495030465,4,,
1,12,2,1,12,167,html-slider-response,167,796774,4143,0,0.2,question_agency,question_agency_line,-20,9,7,14,7,0.063489562,-0.016648021,5,,
1,18,2,1,18,49,html-slider-response,49,264852,8728,0,0.3,question_agency,question_agency_line,-30,9,7,25,6,-0.342414194,-0.218222565,1,,
1,15,2,1,15,80,html-slider-response,80,410511,4349,37,0.3,question_agency,question_agency_line,7,7,6,18,20,0.143159613,0.056781137,2,,
1,19,2,1,19,102,html-slider-response,102,506045,4450,14,0.3,question_agency,question_agency_line,-16,6,8,16,8,-0.049021612,0.21088952,3,,
1,17,2,1,17,154,html-slider-response,154,743672,6754,35,0.3,question_agency,question_agency_line,5,6,6,11,20,0.290962703,-0.125858062,4,,
1,16,2,1,16,188,html-slider-response,188,890598,5039,78,0.3,question_agency,question_agency_line,48,4,5,8,8,0.24489553,0.159621689,5,,
1,21,2,1,21,52,html-slider-response,52,279316,5452,5,0.4,question_agency,question_agency_line,-35,5,9,16,10,-0.185902331,0.209252868,1,,
1,20,2,1,20,56,html-slider-response,56,299104,8651,36,0.4,question_agency,question_agency_line,-4,8,8,33,8,0.380595341,0.228984661,2,,
1,24,2,1,24,93,html-slider-response,93,464934,6902,39,0.4,question_agency,question_agency_line,-1,7,8,37,6,0.402695145,0.339923711,3,,
1,22,2,1,22,127,html-slider-response,127,618186,10554,58,0.4,question_agency,question_agency_line,18,7,6,18,12,0.000591143,-0.200094473,4,,
1,23,2,1,23,179,html-slider-response,179,850333,6511,55,0.4,question_agency,question_agency_line,15,6,9,21,8,0.059168857,-0.116921962,5,,
1,27,2,1,27,22,html-slider-response,22,138144,26681,31,0.5,question_agency,question_agency_line,-19,5,7,13,10,0.17591924,-0.251505287,1,,
1,28,2,1,28,68,html-slider-response,68,361575,2938,83,0.5,question_agency,question_agency_line,33,7,7,11,14,0.135803816,0.019436243,2,,
1,29,2,1,29,90,html-slider-response,90,449022,2767,62,0.5,question_agency,question_agency_line,12,10,10,21,31,-0.101908811,-0.193693869,3,,
1,26,2,1,26,148,html-slider-response,148,715209,2832,86,0.5,question_agency,question_agency_line,36,5,8,29,35,0.109918177,-0.127406898,4,,
1,25,2,1,25,182,html-slider-response,182,863702,4354,79,0.5,question_agency,question_agency_line,29,9,5,12,9,0.244242551,0.067540238,5,,
1,30,2,1,30,25,html-slider-response,25,154936,7782,73,0.6,question_agency,question_agency_line,13,10,7,17,16,-0.0540503,0.290949685,1,,
1,34,2,1,34,59,html-slider-response,59,313025,4912,84,0.6,question_agency,question_agency_line,24,5,7,15,14,-0.498643186,0.043210458,2,,
1,31,2,1,31,120,html-slider-response,120,582435,3547,88,0.6,question_agency,question_agency_line,28,10,9,19,12,0.16689094,0.030438658,3,,
1,32,2,1,32,130,html-slider-response,130,629634,2441,87,0.6,question_agency,question_agency_line,27,10,7,12,14,-0.093848999,0.468323463,4,,
1,33,2,1,33,161,html-slider-response,161,769553,3890,90,0.6,question_agency,question_agency_line,30,9,5,17,14,0.144729938,-0.072631758,5,,
1,36,2,1,36,31,html-slider-response,31,180773,3997,100,0.7,question_agency,question_agency_line,30,6,6,15,12,-0.322645199,-0.343571309,1,,
1,39,2,1,39,71,html-slider-response,71,373959,3371,85,0.7,question_agency,question_agency_line,15,6,7,9,12,-0.280832826,0.013154005,2,,
1,35,2,1,35,96,html-slider-response,96,480540,6596,71,0.7,question_agency,question_agency_line,1,5,5,18,19,0.331430894,-0.124108367,3,,
1,38,2,1,38,133,html-slider-response,133,649075,10430,76,0.7,question_agency,question_agency_line,6,7,3,15,16,-0.324732193,-0.189612084,4,,
1,37,2,1,37,170,html-slider-response,170,809103,3319,90,0.7,question_agency,question_agency_line,20,8,7,13,9,0.144476697,0.095347349,5,,
1,40,2,1,40,46,html-slider-response,46,247115,3864,100,0.8,question_agency,question_agency_line,20,9,9,22,16,-0.051092729,-0.242751124,1,,
1,44,2,1,44,83,html-slider-response,83,422701,3176,100,0.8,question_agency,question_agency_line,20,7,5,36,12,0.034502321,-0.007470138,2,,
1,42,2,1,42,99,html-slider-response,99,492580,3030,83,0.8,question_agency,question_agency_line,3,9,8,15,12,0.114816259,0.260691998,3,,
1,43,2,1,43,139,html-slider-response,139,677512,3170,100,0.8,question_agency,question_agency_line,20,2,2,30,33,-0.06492483,0.138734673,4,,
1,41,2,1,41,164,html-slider-response,164,783614,5056,98,0.8,question_agency,question_agency_line,18,4,9,18,17,-0.539669651,-0.017498638,5,,
1,47,2,1,47,34,html-slider-response,34,193157,3377,100,0.9,question_agency,question_agency_line,10,5,5,31,32,-0.234940086,0.26009319,1,,
1,46,2,1,46,74,html-slider-response,74,385575,2609,100,0.9,question_agency,question_agency_line,10,7,5,27,27,0.023653061,-0.034015904,2,,
1,49,2,1,49,111,html-slider-response,111,544475,3440,100,0.9,question_agency,question_agency_line,10,7,7,18,11,0.306237879,-0.260362911,3,,
1,48,2,1,48,124,html-slider-response,124,598625,4718,100,0.9,question_agency,question_agency_line,10,8,6,10,9,0.077524638,0.090474011,4,,
1,45,2,1,45,185,html-slider-response,185,876542,3829,100,0.9,question_agency,question_agency_line,10,10,7,10,10,-0.272430982,-0.029774729,5,,
1,52,2,1,52,43,html-slider-response,43,234239,3655,100,1,question_agency,question_agency_line,0,8,8,22,19,0.264020026,0.122810155,1,,
1,53,2,1,53,65,html-slider-response,65,349634,3745,100,1,question_agency,question_agency_line,0,9,7,15,14,0.306772589,-0.083084487,2,,
1,54,2,1,54,105,html-slider-response,105,518989,3935,100,1,question_agency,question_agency_line,0,4,7,11,10,0.056380506,0.072856627,3,,
1,51,2,1,51,145,html-slider-response,145,703369,4118,100,1,question_agency,question_agency_line,0,9,10,32,29,0.11914891,0.334503205,4,,
1,50,2,1,50,158,html-slider-response,158,756648,2912,100,1,question_agency,question_agency_line,0,9,6,9,6,-0.083828888,-0.057928976,5,,
1,3,3,1,3,34,html-slider-response,34,175060,3267,5,0,question_agency,question_agency_line,5,8,4,11,9,-0.289880855,0.687419237,1,,
1,2,3,1,2,86,html-slider-response,86,377273,2331,21,0,question_agency,question_agency_line,21,6,6,8,18,-0.016078845,-0.076892183,2,,
1,0,3,1,0,99,html-slider-response,99,427416,2265,0,0,question_agency,question_agency_line,0,7,8,14,11,-0.147773631,0.051998876,3,,
1,1,3,1,1,127,html-slider-response,127,537058,3562,12,0,question_agency,question_agency_line,12,7,8,8,6,0.135098908,0.196042475,4,,
1,4,3,1,4,164,html-slider-response,164,691497,3729,7,0,question_agency,question_agency_line,7,6,6,7,2,-0.002606337,0.16720731,5,,
1,9,3,1,9,43,html-slider-response,43,209587,2158,15,0.1,question_agency,question_agency_line,5,8,9,15,12,0.086853681,0.059476015,1,,
1,6,3,1,6,83,html-slider-response,83,365931,2605,0,0.1,question_agency,question_agency_line,-10,6,9,15,18,-0.057027193,-0.034640494,2,,
1,7,3,1,7,105,html-slider-response,105,451602,2796,22,0.1,question_agency,question_agency_line,12,7,8,9,17,0.068950762,0.026023447,3,,
1,5,3,1,5,148,html-slider-response,148,624753,3488,4,0.1,question_agency,question_agency_line,-6,9,9,7,13,0.257237077,0.297731528,4,,
1,8,3,1,8,179,html-slider-response,179,758693,3757,3,0.1,question_agency,question_agency_line,-7,5,8,4,9,0.310451444,0.051356164,5,,
1,11,3,1,11,25,html-slider-response,25,138706,2893,29,0.2,question_agency,question_agency_line,9,7,4,10,7,0.13180409,-0.176532458,1,,
1,14,3,1,14,74,html-slider-response,74,331692,2209,4,0.2,question_agency,question_agency_line,-16,7,8,10,18,-0.158362669,0.115900259,2,,
1,12,3,1,12,111,html-slider-response,111,475064,2453,20,0.2,question_agency,question_agency_line,0,6,7,7,2,0.083588076,0.61973227,3,,
1,13,3,1,13,151,html-slider-response,151,638487,4725,0,0.2,question_agency,question_agency_line,-20,9,9,9,17,-0.284395876,0.007750487,4,,
1,10,3,1,10,158,html-slider-response,158,665743,2538,23,0.2,question_agency,question_agency_line,3,5,5,4,5,0.065851537,0.582834416,5,,
1,17,3,1,17,46,html-slider-response,46,221694,3099,17,0.3,question_agency,question_agency_line,-13,8,7,7,6,0.470873038,0.113396287,1,,
1,16,3,1,16,80,html-slider-response,80,354318,2207,35,0.3,question_agency,question_agency_line,5,4,6,1,17,0.276323314,0.506672967,2,,
1,19,3,1,19,114,html-slider-response,114,488113,4039,30,0.3,question_agency,question_agency_line,0,7,11,5,18,0.376969922,0.131333269,3,,
1,15,3,1,15,142,html-slider-response,142,600165,2683,47,0.3,question_agency,question_agency_line,17,6,7,7,6,0.026276981,0.291007043,4,,
1,18,3,1,18,167,html-slider-response,167,704235,3722,33,0.3,question_agency,question_agency_line,3,3,6,3,6,0.476124831,0.354382664,5,,
1,22,3,1,22,52,html-slider-response,52,247763,3856,44,0.4,question_agency,question_agency_line,4,7,9,11,6,-0.071267677,0.439561741,1,,
1,21,3,1,21,65,html-slider-response,65,297439,2396,18,0.4,question_agency,question_agency_line,-22,5,7,6,10,0.028955464,0.256272232,2,,
1,23,3,1,23,90,html-slider-response,90,390810,3111,34,0.4,question_agency,question_agency_line,-6,8,7,7,6,-0.04463515,0.182513145,3,,
1,24,3,1,24,145,html-slider-response,145,612255,3077,21,0.4,question_agency,question_agency_line,-19,6,8,6,1,0.513914873,0.605841352,4,,
1,20,3,1,20,185,html-slider-response,185,784047,3686,0,0.4,question_agency,question_agency_line,-40,8,6,2,10,-0.271082144,-0.276768182,5,,
1,29,3,1,29,49,html-slider-response,49,234897,4193,39,0.5,question_agency,question_agency_line,-11,5,8,8,2,0.383761447,0.215724113,1,,
1,26,3,1,26,77,html-slider-response,77,343100,2397,37,0.5,question_agency,question_agency_line,-13,3,8,12,9,-0.046531936,0.316039955,2,,
1,25,3,1,25,117,html-slider-response,117,500025,2903,57,0.5,question_agency,question_agency_line,7,7,6,8,9,0.331432743,0.308356927,3,,
1,27,3,1,27,130,html-slider-response,130,548782,2714,36,0.5,question_agency,question_agency_line,-14,7,10,7,6,-0.560622089,-0.61920457,4,,
1,28,3,1,28,170,html-slider-response,170,719157,5911,23,0.5,question_agency,question_agency_line,-27,5,5,2,5,-0.605805555,0.235917262,5,,
1,31,3,1,31,40,html-slider-response,40,198420,2524,57,0.6,question_agency,question_agency_line,-3,11,5,8,6,0.412917464,0.460692171,1,,
1,30,3,1,30,59,html-slider-response,59,274304,2420,56,0.6,question_agency,question_agency_line,-4,9,7,3,6,0.158990929,-0.14943135,2,,
1,33,3,1,33,93,html-slider-response,93,403107,3286,42,0.6,question_agency,question_agency_line,-18,6,5,10,9,-0.204038092,0.355964063,3,,
1,34,3,1,34,133,html-slider-response,133,562814,5021,46,0.6,question_agency,question_agency_line,-14,5,2,9,9,-0.320659815,-0.554803145,4,,
1,32,3,1,32,173,html-slider-response,173,731928,3758,24,0.6,question_agency,question_agency_line,-36,5,6,4,3,0.017264406,0.420252899,5,,
1,37,3,1,37,22,html-slider-response,22,126800,5471,67,0.7,question_agency,question_agency_line,-3,7,7,7,9,-0.105852523,-0.11295605,1,,
1,39,3,1,39,71,html-slider-response,71,320475,2302,59,0.7,question_agency,question_agency_line,-11,9,10,6,9,-0.389247099,-0.381335988,2,,
1,38,3,1,38,120,html-slider-response,120,511298,2263,65,0.7,question_agency,question_agency_line,-5,5,6,7,6,-0.513229329,-0.092873983,3,,
1,35,3,1,35,139,html-slider-response,139,588470,3316,59,0.7,question_agency,question_agency_line,-11,5,5,4,3,0.420298854,0.486130581,4,,
1,36,3,1,36,182,html-slider-response,182,771349,3646,23,0.7,question_agency,question_agency_line,-47,5,6,4,3,-0.180182631,-0.00830251,5,,
1,41,3,1,41,31,html-slider-response,31,162784,2898,58,0.8,question_agency,question_agency_line,-22,7,7,6,4,0.342176439,-0.169861519,1,,
1,44,3,1,44,56,html-slider-response,56,262876,2555,77,0.8,question_agency,question_agency_line,-3,8,5,6,6,0.066264453,0.483860383,2,,
1,40,3,1,40,108,html-slider-response,108,463599,2988,47,0.8,question_agency,question_agency_line,-33,10,10,7,11,-0.080851224,0.293558052,3,,
1,42,3,1,42,154,html-slider-response,154,651749,4245,31,0.8,question_agency,question_agency_line,-49,6,7,2,9,0.046726486,-0.431288938,4,,
1,43,3,1,43,161,html-slider-response,161,678757,4005,82,0.8,question_agency,question_agency_line,2,8,6,2,9,-0.691460549,0.353858149,5,,
1,46,3,1,46,28,html-slider-response,28,150875,3159,77,0.9,question_agency,question_agency_line,-13,6,7,7,8,0.005414847,0.474179659,1,,
1,48,3,1,48,68,html-slider-response,68,309163,2716,53,0.9,question_agency,question_agency_line,-37,7,7,9,6,0.224200446,0.307754766,2,,
1,49,3,1,49,96,html-slider-response,96,416141,4022,59,0.9,question_agency,question_agency_line,-31,5,9,5,7,-0.411102784,-0.047608203,3,,
1,45,3,1,45,124,html-slider-response,124,524488,2344,69,0.9,question_agency,question_agency_line,-21,6,5,3,4,-0.435838355,0.557893987,4,,
1,47,3,1,47,176,html-slider-response,176,745926,4988,86,0.9,question_agency,question_agency_line,-4,5,6,2,3,0.321231179,0.020540809,5,,
1,50,3,1,50,37,html-slider-response,37,186886,2816,100,1,question_agency,question_agency_line,0,7,5,4,4,0.048214757,0.334961085,1,,
1,53,3,1,53,62,html-slider-response,62,286035,2724,100,1,question_agency,question_agency_line,0,7,9,5,13,-0.072419699,-0.063097124,2,,
1,52,3,1,52,102,html-slider-response,102,439794,3369,100,1,question_agency,question_agency_line,0,9,5,8,7,-0.151491762,-0.789073332,3,,
1,51,3,1,51,136,html-slider-response,136,576144,4321,100,1,question_agency,question_agency_line,0,9,5,1,4,0.349896773,0.446278736,4,,
1,54,3,1,54,188,html-slider-response,188,798737,5679,100,1,question_agency,question_agency_line,0,4,5,4,3,0.122298205,-0.273638396,5,,
1,1,4,1,1,28,html-slider-response,28,185371,5163,8,0,question_agency,question_agency_line,8,8,8,23,40,-0.168948743,-0.094263751,1,,
1,0,4,1,0,77,html-slider-response,77,399985,4272,5,0,question_agency,question_agency_line,5,8,8,40,10,-0.044182517,0.004720789,2,,
1,4,4,1,4,99,html-slider-response,99,484527,2457,0,0,question_agency,question_agency_line,0,7,8,10,28,0.361632523,-0.090670293,3,,
1,3,4,1,3,139,html-slider-response,139,635846,2024,0,0,question_agency,question_agency_line,0,9,7,26,12,0.001955267,0.114976141,4,,
1,2,4,1,2,182,html-slider-response,182,797290,2114,0,0,question_agency,question_agency_line,0,9,6,28,22,-0.177482396,-0.231355274,5,,
1,9,4,1,9,52,html-slider-response,52,296844,4519,8,0.1,question_agency,question_agency_line,-2,7,5,64,0,0.177859203,0,1,,
1,5,4,1,5,65,html-slider-response,65,349472,3938,0,0.1,question_agency,question_agency_line,-10,8,7,18,44,-0.092893485,-0.172294942,2,,
1,6,4,1,6,90,html-slider-response,90,450885,3131,0,0.1,question_agency,question_agency_line,-10,8,9,14,40,0.046027264,0.164543568,3,,
1,8,4,1,8,154,html-slider-response,154,694160,3158,0,0.1,question_agency,question_agency_line,-10,7,6,10,34,0.004016033,0.019277573,4,,
1,7,4,1,7,158,html-slider-response,158,706494,2130,3,0.1,question_agency,question_agency_line,-7,4,7,10,20,0.212463572,0.463736228,5,,
1,14,4,1,14,25,html-slider-response,25,171200,8933,62,0.2,question_agency,question_agency_line,42,8,11,14,39,0.11587923,0.109916608,1,,
1,12,4,1,12,68,html-slider-response,68,361938,3458,0,0.2,question_agency,question_agency_line,-20,4,6,40,18,0.000575173,-0.409672028,2,,
1,10,4,1,10,120,html-slider-response,120,564632,2421,0,0.2,question_agency,question_agency_line,-20,7,7,8,29,0.005292778,-0.119776534,3,,
1,11,4,1,11,136,html-slider-response,136,624818,2103,9,0.2,question_agency,question_agency_line,-11,6,5,24,12,-0.073207035,0.13952504,4,,
1,13,4,1,13,173,html-slider-response,173,764052,3216,56,0.2,question_agency,question_agency_line,36,7,6,18,16,0.027252791,0.339811893,5,,
1,16,4,1,16,22,html-slider-response,22,153255,9611,54,0.3,question_agency,question_agency_line,24,7,5,8,36,0.185236115,0.08882715,1,,
1,19,4,1,19,59,html-slider-response,59,324424,3206,72,0.3,question_agency,question_agency_line,42,8,5,32,36,0.079525495,0.269555862,2,,
1,17,4,1,17,105,html-slider-response,105,507550,2309,12,0.3,question_agency,question_agency_line,-18,6,4,16,16,0.032076821,0.230015949,3,,
1,15,4,1,15,133,html-slider-response,133,613708,3411,0,0.3,question_agency,question_agency_line,-30,7,6,28,25,0.082210964,-0.081510423,4,,
1,18,4,1,18,188,html-slider-response,188,821241,2614,8,0.3,question_agency,question_agency_line,-22,5,6,8,25,0.149401827,-0.263979147,5,,
1,21,4,1,21,34,html-slider-response,34,218250,6232,30,0.4,question_agency,question_agency_line,-10,7,8,28,22,-0.38421223,-0.179647673,1,,
1,22,4,1,22,56,html-slider-response,56,312210,3143,2,0.4,question_agency,question_agency_line,-38,5,7,0,80,0,-0.206508039,2,,
1,23,4,1,23,114,html-slider-response,114,542214,3112,1,0.4,question_agency,question_agency_line,-39,4,7,18,28,-0.042181597,-0.178219424,3,,
1,20,4,1,20,148,html-slider-response,148,670245,2953,83,0.4,question_agency,question_agency_line,43,10,8,11,4,-0.094310764,0.593889019,4,,
1,24,4,1,24,176,html-slider-response,176,775058,1998,0,0.4,question_agency,question_agency_line,-40,5,9,10,33,0.066897174,-0.205626537,5,,
1,29,4,1,29,31,html-slider-response,31,203007,8625,48,0.5,question_agency,question_agency_line,-2,11,8,26,33,-0.09838307,0.119433749,1,,
1,25,4,1,25,74,html-slider-response,74,386703,3282,14,0.5,question_agency,question_agency_line,-36,8,9,22,32,0.028928496,0.035713135,2,,
1,27,4,1,27,117,html-slider-response,117,553206,1983,17,0.5,question_agency,question_agency_line,-33,6,6,7,10,0.343153071,0.419225134,3,,
1,26,4,1,26,124,html-slider-response,124,577307,2074,34,0.5,question_agency,question_agency_line,-16,6,9,6,16,0.219772607,-0.099817653,4,,
1,28,4,1,28,179,html-slider-response,179,786170,2107,51,0.5,question_agency,question_agency_line,1,6,7,18,25,-0.496648006,-0.12182669,5,,
1,30,4,1,30,40,html-slider-response,40,244619,4094,58,0.6,question_agency,question_agency_line,-2,7,7,9,58,0.129989399,-0.063591449,1,,
1,33,4,1,33,62,html-slider-response,62,336524,3093,50,0.6,question_agency,question_agency_line,-10,8,5,15,54,0.273985116,-0.373853272,2,,
1,31,4,1,31,96,html-slider-response,96,473063,2080,0,0.6,question_agency,question_agency_line,-60,6,6,16,31,-0.320167,-0.205598478,3,,
1,32,4,1,32,151,html-slider-response,151,681996,2746,64,0.6,question_agency,question_agency_line,4,6,9,4,6,0.335521982,-0.238705376,4,,
1,34,4,1,34,167,html-slider-response,167,740274,2398,61,0.6,question_agency,question_agency_line,1,7,4,10,26,-0.047141671,0.184696898,5,,
1,35,4,1,35,43,html-slider-response,43,257184,3558,78,0.7,question_agency,question_agency_line,8,8,9,8,58,0.011730124,0.043535686,1,,
1,36,4,1,36,83,html-slider-response,83,424404,3163,50,0.7,question_agency,question_agency_line,-20,5,8,22,42,-0.21586071,-0.145584271,2,,
1,38,4,1,38,111,html-slider-response,111,530095,2376,100,0.7,question_agency,question_agency_line,30,6,10,6,9,0.46152638,0.116870071,3,,
1,37,4,1,37,130,html-slider-response,130,601294,2795,55,0.7,question_agency,question_agency_line,-15,9,8,26,7,-0.219257584,-0.088490305,4,,
1,39,4,1,39,185,html-slider-response,185,809620,3326,46,0.7,question_agency,question_agency_line,-24,9,8,4,24,0.215616866,-0.265866105,5,,
1,40,4,1,40,46,html-slider-response,46,270040,3847,100,0.8,question_agency,question_agency_line,20,9,10,0,66,0,-0.281654069,1,,
1,41,4,1,41,86,html-slider-response,86,436759,3348,100,0.8,question_agency,question_agency_line,20,4,4,21,24,-0.21480529,0.443510225,2,,
1,43,4,1,43,93,html-slider-response,93,461975,2083,100,0.8,question_agency,question_agency_line,20,7,10,4,15,0.310368715,-0.187338496,3,,
1,42,4,1,42,145,html-slider-response,145,658284,1997,100,0.8,question_agency,question_agency_line,20,5,7,4,15,0.174261545,-0.085045968,4,,
1,44,4,1,44,161,html-slider-response,161,717930,2432,100,0.8,question_agency,question_agency_line,20,5,8,4,22,0.155713623,0.238763102,5,,
1,49,4,1,49,49,html-slider-response,49,283318,4271,100,0.9,question_agency,question_agency_line,10,6,4,62,0,0.018567299,0,1,,
1,46,4,1,46,71,html-slider-response,71,374415,3469,100,0.9,question_agency,question_agency_line,10,5,7,12,50,-0.314613392,-0.100215968,2,,
1,48,4,1,48,102,html-slider-response,102,496234,2698,100,0.9,question_agency,question_agency_line,10,2,6,6,8,0.441519974,-0.387026161,3,,
1,47,4,1,47,127,html-slider-response,127,589502,3208,100,0.9,question_agency,question_agency_line,10,7,8,14,16,0.173871494,0.110977247,4,,
1,45,4,1,45,164,html-slider-response,164,728869,1931,100,0.9,question_agency,question_agency_line,10,10,8,4,27,0.211703141,0.128420142,5,,
1,54,4,1,54,37,html-slider-response,37,231518,4262,90,1,question_agency,question_agency_line,-10,8,8,18,36,-0.100289261,0.099620026,1,,
1,53,4,1,53,80,html-slider-response,80,412235,3245,100,1,question_agency,question_agency_line,0,7,4,30,13,-0.352397777,0.102889124,2,,
1,52,4,1,52,108,html-slider-response,108,518713,2155,100,1,question_agency,question_agency_line,0,7,7,8,19,-0.012270009,-0.139713466,3,,
1,50,4,1,50,142,html-slider-response,142,647280,2429,100,1,question_agency,question_agency_line,0,9,6,4,6,0.072193033,-0.14610644,4,,
1,51,4,1,51,170,html-slider-response,170,751829,2550,100,1,question_agency,question_agency_line,0,11,8,8,17,0.113030726,-0.033904828,5,,
1,2,5,0,2,34,html-slider-response,34,172297,4279,0,0,question_agency,question_agency_line,0,6,6,0,0,0,0,1,,
1,1,5,0,1,65,html-slider-response,65,306375,3627,0,0,question_agency,question_agency_line,0,9,8,0,0,0,0,2,,
1,3,5,0,3,96,html-slider-response,96,437869,4138,0,0,question_agency,question_agency_line,0,10,9,0,0,0,0,3,,
1,4,5,0,4,142,html-slider-response,142,647446,2530,0,0,question_agency,question_agency_line,0,7,8,0,0,0,0,4,,
1,0,5,0,0,188,html-slider-response,188,852274,9497,0,0,question_agency,question_agency_line,0,5,5,0,0,0,0,5,,
1,8,5,0,8,40,html-slider-response,40,196681,3180,2,0.1,question_agency,question_agency_line,-8,2,6,0,0,0,0,1,,
1,7,5,0,7,86,html-slider-response,86,398299,4383,0,0.1,question_agency,question_agency_line,-10,9,9,0,0,0,0,2,,
1,6,5,0,6,114,html-slider-response,114,509502,4950,0,0.1,question_agency,question_agency_line,-10,9,7,0,0,0,0,3,,
1,5,5,0,5,139,html-slider-response,139,635892,2543,0,0.1,question_agency,question_agency_line,-10,6,4,0,0,0,0,4,,
1,9,5,0,9,182,html-slider-response,182,819787,4821,0,0.1,question_agency,question_agency_line,-10,9,9,0,0,0,0,5,,
1,11,5,0,11,46,html-slider-response,46,222449,4070,1,0.2,question_agency,question_agency_line,-19,7,7,0,0,0,0,1,,
1,10,5,0,10,56,html-slider-response,56,268128,5383,1,0.2,question_agency,question_agency_line,-19,5,9,0,0,0,0,2,,
1,12,5,0,12,111,html-slider-response,111,495532,2633,0,0.2,question_agency,question_agency_line,-20,10,7,0,0,0,0,3,,
1,13,5,0,13,130,html-slider-response,130,590684,7887,0,0.2,question_agency,question_agency_line,-20,8,9,0,0,0,0,4,,
1,14,5,0,14,170,html-slider-response,170,766943,5446,0,0.2,question_agency,question_agency_line,-20,7,7,0,0,0,0,5,,
1,18,5,0,18,31,html-slider-response,31,159001,4850,10,0.3,question_agency,question_agency_line,-20,6,6,0,0,0,0,1,,
1,19,5,0,19,62,html-slider-response,62,293730,3194,0,0.3,question_agency,question_agency_line,-30,8,8,0,0,0,0,2,,
1,16,5,0,16,99,html-slider-response,99,449244,2357,0,0.3,question_agency,question_agency_line,-30,8,7,0,0,0,0,3,,
1,17,5,0,17,151,html-slider-response,151,683098,2234,0,0.3,question_agency,question_agency_line,-30,8,6,0,0,0,0,4,,
1,15,5,0,15,185,html-slider-response,185,833717,4903,0,0.3,question_agency,question_agency_line,-30,8,7,0,0,0,0,5,,
1,23,5,0,23,28,html-slider-response,28,145138,3233,16,0.4,question_agency,question_agency_line,-24,6,5,0,0,0,0,1,,
1,21,5,0,21,74,html-slider-response,74,348315,3880,0,0.4,question_agency,question_agency_line,-40,5,8,0,0,0,0,2,,
1,24,5,0,24,93,html-slider-response,93,424679,2793,0,0.4,question_agency,question_agency_line,-40,6,5,0,0,0,0,3,,
1,22,5,0,22,136,html-slider-response,136,624324,11642,0,0.4,question_agency,question_agency_line,-40,4,5,0,0,0,0,4,,
1,20,5,0,20,176,html-slider-response,176,792715,2633,0,0.4,question_agency,question_agency_line,-40,5,3,0,0,0,0,5,,
1,27,5,0,27,25,html-slider-response,25,132895,4949,11,0.5,question_agency,question_agency_line,-39,8,7,0,0,0,0,1,,
1,28,5,0,28,71,html-slider-response,71,335403,3905,0,0.5,question_agency,question_agency_line,-50,5,9,0,0,0,0,2,,
1,29,5,0,29,102,html-slider-response,102,461311,3059,0,0.5,question_agency,question_agency_line,-50,7,9,0,0,0,0,3,,
1,26,5,0,26,127,html-slider-response,127,573747,17797,0,0.5,question_agency,question_agency_line,-50,5,8,0,0,0,0,4,,
1,25,5,0,25,164,html-slider-response,164,736494,6545,0,0.5,question_agency,question_agency_line,-50,8,4,0,0,0,0,5,,
1,31,5,0,31,43,html-slider-response,43,209328,3628,1,0.6,question_agency,question_agency_line,-59,6,8,0,0,0,0,1,,
1,30,5,0,30,59,html-slider-response,59,281527,4153,0,0.6,question_agency,question_agency_line,-60,7,4,0,0,0,0,2,,
1,32,5,0,32,108,html-slider-response,108,483884,2232,0,0.6,question_agency,question_agency_line,-60,8,8,0,0,0,0,3,,
1,34,5,0,34,124,html-slider-response,124,546908,2322,0,0.6,question_agency,question_agency_line,-60,7,5,0,0,0,0,4,,
1,33,5,0,33,158,html-slider-response,158,708565,2149,0,0.6,question_agency,question_agency_line,-60,5,6,0,0,0,0,5,,
1,36,5,0,36,37,html-slider-response,37,184477,3159,0,0.7,question_agency,question_agency_line,-70,7,6,0,0,0,0,1,,
1,37,5,0,37,68,html-slider-response,68,322464,7069,0,0.7,question_agency,question_agency_line,-70,5,4,0,0,0,0,2,,
1,38,5,0,38,120,html-slider-response,120,532811,2480,0,0.7,question_agency,question_agency_line,-70,10,7,0,0,0,0,3,,
1,35,5,0,35,154,html-slider-response,154,695426,3293,0,0.7,question_agency,question_agency_line,-70,9,8,0,0,0,0,4,,
1,39,5,0,39,167,html-slider-response,167,752479,6960,0,0.7,question_agency,question_agency_line,-70,5,4,0,0,0,0,5,,
1,41,5,0,41,22,html-slider-response,22,118937,4481,10,0.8,question_agency,question_agency_line,-70,9,5,0,0,0,0,1,,
1,44,5,0,44,80,html-slider-response,80,372872,3860,0,0.8,question_agency,question_agency_line,-80,8,8,0,0,0,0,2,,
1,43,5,0,43,117,html-slider-response,117,521307,2792,0,0.8,question_agency,question_agency_line,-80,8,9,0,0,0,0,3,,
1,42,5,0,42,145,html-slider-response,145,659482,3015,0,0.8,question_agency,question_agency_line,-80,4,9,0,0,0,0,4,,
1,40,5,0,40,179,html-slider-response,179,805933,4197,0,0.8,question_agency,question_agency_line,-80,6,7,0,0,0,0,5,,
1,48,5,0,48,49,html-slider-response,49,235027,3544,0,0.9,question_agency,question_agency_line,-90,4,8,0,0,0,0,1,,
1,46,5,0,46,83,html-slider-response,83,384880,2963,0,0.9,question_agency,question_agency_line,-90,5,6,0,0,0,0,2,,
1,49,5,0,49,105,html-slider-response,105,472616,2284,0,0.9,question_agency,question_agency_line,-90,6,7,0,0,0,0,3,,
1,45,5,0,45,133,html-slider-response,133,603612,3896,0,0.9,question_agency,question_agency_line,-90,9,7,0,0,0,0,4,,
1,47,5,0,47,173,html-slider-response,173,781047,5077,0,0.9,question_agency,question_agency_line,-90,8,6,0,0,0,0,5,,
1,53,5,0,53,52,html-slider-response,52,248018,3966,0,1,question_agency,question_agency_line,-100,7,4,0,0,0,0,1,,
1,52,5,0,52,77,html-slider-response,77,359986,2636,0,1,question_agency,question_agency_line,-100,8,9,0,0,0,0,2,,
1,51,5,0,51,90,html-slider-response,90,412851,3117,0,1,question_agency,question_agency_line,-100,7,6,0,0,0,0,3,,
1,54,5,0,54,148,html-slider-response,148,671772,3271,0,1,question_agency,question_agency_line,-100,6,3,0,0,0,0,4,,
1,50,5,0,50,161,html-slider-response,161,720912,3315,0,1,question_agency,question_agency_line,-100,9,8,0,0,0,0,5,,
1,4,6,1,4,40,html-slider-response,40,179597,2814,0,0,question_agency,question_agency_line,0,5,7,15,4,0.187308185,-0.057344586,1,,
1,1,6,1,1,62,html-slider-response,62,275272,2760,1,0,question_agency,question_agency_line,1,4,7,7,12,-0.443053873,0.164490571,2,,
1,0,6,1,0,117,html-slider-response,117,629883,11981,28,0,question_agency,question_agency_line,28,9,9,2,6,-0.015504045,0.157360344,3,,
1,2,6,1,2,154,html-slider-response,154,837857,2206,92,0,question_agency,question_agency_line,92,9,6,9,10,-0.293806504,-0.04764741,4,,
1,3,6,1,3,167,html-slider-response,167,885889,2947,2,0,question_agency,question_agency_line,2,6,4,28,20,-0.13882971,0.030581951,5,,
1,9,6,1,9,37,html-slider-response,37,167769,2647,3,0.1,question_agency,question_agency_line,-7,5,5,9,9,-0.160322493,0.009645027,1,,
1,5,6,1,5,74,html-slider-response,74,353256,18769,3,0.1,question_agency,question_agency_line,-7,6,6,15,14,0.002523129,-0.044538215,2,,
1,8,6,1,8,102,html-slider-response,102,552960,2780,12,0.1,question_agency,question_agency_line,2,7,7,20,7,-0.219878714,-0.084624902,3,,
1,7,6,1,7,130,html-slider-response,130,736891,1799,29,0.1,question_agency,question_agency_line,19,5,5,18,7,-0.220002273,0.471424755,4,,
1,6,6,1,6,179,html-slider-response,179,934285,3355,11,0.1,question_agency,question_agency_line,1,6,7,40,29,-0.020926322,0.055764742,5,,
1,14,6,1,14,46,html-slider-response,46,205000,2498,45,0.2,question_agency,question_agency_line,25,5,7,16,16,-0.323493134,0.122111517,1,,
1,12,6,1,12,65,html-slider-response,65,285998,1714,2,0.2,question_agency,question_agency_line,-18,5,4,11,2,-0.250933028,-0.332745307,2,,
1,11,6,1,11,93,html-slider-response,93,517208,2345,13,0.2,question_agency,question_agency_line,-7,7,2,19,13,0.200763373,0.020011115,3,,
1,13,6,1,13,142,html-slider-response,142,793020,8741,66,0.2,question_agency,question_agency_line,46,6,7,10,11,-0.021621651,-0.37329862,4,,
1,10,6,1,10,158,html-slider-response,158,850158,1951,78,0.2,question_agency,question_agency_line,58,4,8,19,14,0.037739608,-0.268459866,5,,
1,18,6,1,18,22,html-slider-response,22,106416,3047,17,0.3,question_agency,question_agency_line,-13,8,6,17,3,-0.055902417,-0.443311498,1,,
1,19,6,1,19,77,html-slider-response,77,365154,2893,39,0.3,question_agency,question_agency_line,9,6,7,30,7,-0.190943115,-0.255241896,2,,
1,16,6,1,16,96,html-slider-response,96,528724,2511,13,0.3,question_agency,question_agency_line,-17,7,9,22,12,-0.168376778,0.046703742,3,,
1,15,6,1,15,145,html-slider-response,145,804371,2339,66,0.3,question_agency,question_agency_line,36,6,8,19,15,0.002502596,-0.251379782,4,,
1,17,6,1,17,185,html-slider-response,185,956446,2200,7,0.3,question_agency,question_agency_line,-23,6,5,5,2,0.087382693,-0.430451384,5,,
1,22,6,1,22,28,html-slider-response,28,130249,3379,19,0.4,question_agency,question_agency_line,-21,8,6,20,24,-0.000566072,-0.283801797,1,,
1,24,6,1,24,68,html-slider-response,68,297313,2304,5,0.4,question_agency,question_agency_line,-35,8,8,7,4,0.248680851,-0.511539682,2,,
1,23,6,1,23,108,html-slider-response,108,579281,3986,20,0.4,question_agency,question_agency_line,-20,6,6,29,30,0.144877467,0.006902468,3,,
1,20,6,1,20,139,html-slider-response,139,775260,3260,67,0.4,question_agency,question_agency_line,27,6,8,41,35,0.019305706,-0.130591463,4,,
1,21,6,1,21,164,html-slider-response,164,873923,1554,11,0.4,question_agency,question_agency_line,-29,7,10,22,21,-0.353828928,-0.021641308,5,,
1,28,6,1,28,31,html-slider-response,31,144166,4888,44,0.5,question_agency,question_agency_line,-6,8,8,6,10,-0.06590428,-0.138783878,1,,
1,27,6,1,27,56,html-slider-response,56,242455,2772,25,0.5,question_agency,question_agency_line,-25,6,5,10,10,0.32865432,0.42646056,2,,
1,26,6,1,26,90,html-slider-response,90,505851,2259,75,0.5,question_agency,question_agency_line,25,7,9,17,15,-0.199827337,-0.214707241,3,,
1,25,6,1,25,127,html-slider-response,127,726082,5339,35,0.5,question_agency,question_agency_line,-15,5,8,33,32,-0.275056244,0.102655101,4,,
1,29,6,1,29,182,html-slider-response,182,945235,1926,16,0.5,question_agency,question_agency_line,-34,4,6,43,36,-0.191076442,-0.154894976,5,,
1,33,6,1,33,25,html-slider-response,25,117862,2412,71,0.6,question_agency,question_agency_line,11,5,7,33,22,0.056636542,0.000203933,1,,
1,32,6,1,32,59,html-slider-response,59,263499,12027,45,0.6,question_agency,question_agency_line,-15,9,7,36,30,-0.012518862,-0.288791912,2,,
1,34,6,1,34,114,html-slider-response,114,608894,4715,78,0.6,question_agency,question_agency_line,18,6,8,50,38,0.011118197,-0.11730205,3,,
1,30,6,1,30,151,html-slider-response,151,826631,2622,90,0.6,question_agency,question_agency_line,30,5,8,49,49,0.031571487,-0.034681946,4,,
1,31,6,1,31,188,html-slider-response,188,969105,3643,46,0.6,question_agency,question_agency_line,-14,5,6,15,13,0.353546475,-0.196023858,5,,
1,39,6,1,39,52,html-slider-response,52,227417,2184,83,0.7,question_agency,question_agency_line,13,8,8,62,41,0.06668563,-0.19884056,1,,
1,38,6,1,38,86,html-slider-response,86,404005,4280,58,0.7,question_agency,question_agency_line,-12,6,8,30,26,0.00286789,0.136747222,2,,
1,36,6,1,36,99,html-slider-response,99,541168,3428,49,0.7,question_agency,question_agency_line,-21,7,7,28,27,0.022917756,-0.170984158,3,,
1,37,6,1,37,136,html-slider-response,136,762992,3299,88,0.7,question_agency,question_agency_line,18,4,4,39,36,0.03248458,0.021455481,4,,
1,35,6,1,35,176,html-slider-response,176,921913,2982,46,0.7,question_agency,question_agency_line,-24,6,6,38,42,-0.110609112,0.029865181,5,,
1,40,6,1,40,43,html-slider-response,43,193477,4871,49,0.8,question_agency,question_agency_line,-31,8,7,22,14,0.001488828,-0.203092238,1,,
1,43,6,1,43,80,html-slider-response,80,379033,4855,38,0.8,question_agency,question_agency_line,-42,7,7,36,28,0.049764386,-0.009435562,2,,
1,42,6,1,42,120,html-slider-response,120,641436,2538,87,0.8,question_agency,question_agency_line,7,7,8,41,40,-0.18256574,0.060228978,3,,
1,44,6,1,44,133,html-slider-response,133,750680,4772,70,0.8,question_agency,question_agency_line,-10,8,7,40,32,-0.097396292,0.105244082,4,,
1,41,6,1,41,161,html-slider-response,161,863355,4183,56,0.8,question_agency,question_agency_line,-24,8,8,43,44,-0.114235152,0.04810879,5,,
1,46,6,1,46,49,html-slider-response,49,216212,2205,82,0.9,question_agency,question_agency_line,-8,6,7,49,41,0.053378128,-0.013649272,1,,
1,45,6,1,45,83,html-slider-response,83,390712,2665,75,0.9,question_agency,question_agency_line,-15,6,6,41,32,0.004541908,0.157684874,2,,
1,48,6,1,48,111,html-slider-response,111,595168,6877,62,0.9,question_agency,question_agency_line,-28,4,6,32,29,0.075894087,-0.128069134,3,,
1,49,6,1,49,124,html-slider-response,124,711732,2776,98,0.9,question_agency,question_agency_line,8,10,7,51,50,0.058949038,-0.093574358,4,,
1,47,6,1,47,173,html-slider-response,173,909925,2218,81,0.9,question_agency,question_agency_line,-9,7,6,23,27,-0.560639205,-0.003301408,5,,
1,52,6,1,52,34,html-slider-response,34,156111,2935,100,1,question_agency,question_agency_line,0,6,5,20,28,-0.486374841,-0.109868723,1,,
1,53,6,1,53,71,html-slider-response,71,325474,19134,84,1,question_agency,question_agency_line,-16,5,6,11,14,0.156152963,-0.102481622,2,,
1,54,6,1,54,105,html-slider-response,105,566288,4798,75,1,question_agency,question_agency_line,-25,7,8,63,52,0.012828502,-0.066364469,3,,
1,50,6,1,50,148,html-slider-response,148,814975,1853,100,1,question_agency,question_agency_line,0,4,7,47,46,-0.075835249,-0.000269972,4,,
1,51,6,1,51,170,html-slider-response,170,898692,3790,17,1,question_agency,question_agency_line,-83,4,5,33,29,0.058808903,-0.008024937,5,,
1,4,7,1,4,43,html-slider-response,43,208100,4527,0,0,question_agency,question_agency_line,0,6,5,24,14,-0.100025531,-0.310976256,1,,
1,0,7,1,0,77,html-slider-response,77,367582,3780,0,0,question_agency,question_agency_line,0,6,6,4,18,0.013326209,0.011764551,2,,
1,1,7,1,1,93,html-slider-response,93,433938,3437,0,0,question_agency,question_agency_line,0,6,6,31,8,-0.094663308,0.176496666,3,,
1,3,7,1,3,154,html-slider-response,154,733495,4403,0,0,question_agency,question_agency_line,0,6,8,0,27,0,0.030239512,4,,
1,2,7,1,2,161,html-slider-response,161,765148,5542,6,0,question_agency,question_agency_line,6,8,7,29,0,0.241256805,0,5,,
1,9,7,1,9,34,html-slider-response,34,168541,3910,0,0.1,question_agency,question_agency_line,-10,5,5,11,14,-0.343454981,0.281151874,1,,
1,7,7,1,7,83,html-slider-response,83,392791,3472,0,0.1,question_agency,question_agency_line,-10,5,7,11,10,-0.186461565,-0.049035517,2,,
1,5,7,1,5,90,html-slider-response,90,421487,5184,4,0.1,question_agency,question_agency_line,-6,8,7,6,4,0.087454492,-0.166589252,3,,
1,6,7,1,6,127,html-slider-response,127,602640,8038,0,0.1,question_agency,question_agency_line,-10,7,6,26,6,0.158666454,0.156827327,4,,
1,8,7,1,8,188,html-slider-response,188,883540,5339,0,0.1,question_agency,question_agency_line,-10,4,5,15,6,-0.064424552,-0.157479032,5,,
1,10,7,1,10,52,html-slider-response,52,252730,7147,1,0.2,question_agency,question_agency_line,-19,6,7,11,8,-0.016333626,0.291690372,1,,
1,12,7,1,12,59,html-slider-response,59,286049,5852,0,0.2,question_agency,question_agency_line,-20,5,9,16,2,0.018032576,0.337467598,2,,
1,11,7,1,11,96,html-slider-response,96,449646,6692,2,0.2,question_agency,question_agency_line,-18,8,6,11,32,-0.174749899,-0.28204777,3,,
1,14,7,1,14,145,html-slider-response,145,691752,4487,3,0.2,question_agency,question_agency_line,-17,8,8,12,11,0.077623233,0.358730231,4,,
1,13,7,1,13,179,html-slider-response,179,841743,3657,0,0.2,question_agency,question_agency_line,-20,7,9,4,25,-0.083058017,-0.088117062,5,,
1,19,7,1,19,25,html-slider-response,25,124746,4233,9,0.3,question_agency,question_agency_line,-21,5,7,10,10,-0.089685682,0.257519133,1,,
1,16,7,1,16,86,html-slider-response,86,405535,3737,50,0.3,question_agency,question_agency_line,20,2,2,6,5,-0.007272847,0.139106749,2,,
1,18,7,1,18,105,html-slider-response,105,497740,5021,24,0.3,question_agency,question_agency_line,-6,7,7,9,18,0.182142282,-0.024699306,3,,
1,17,7,1,17,142,html-slider-response,142,678254,5131,8,0.3,question_agency,question_agency_line,-22,7,2,5,16,0.232070026,-0.087931561,4,,
1,15,7,1,15,182,html-slider-response,182,856056,5305,0,0.3,question_agency,question_agency_line,-30,7,8,14,4,-0.18664042,-0.184130882,5,,
1,22,7,1,22,37,html-slider-response,37,181920,4371,9,0.4,question_agency,question_agency_line,-31,5,7,10,9,-0.053084728,0.196378888,1,,
1,21,7,1,21,68,html-slider-response,68,328349,6588,7,0.4,question_agency,question_agency_line,-33,7,8,20,4,-0.206806426,0.008112704,2,,
1,24,7,1,24,108,html-slider-response,108,513968,7220,16,0.4,question_agency,question_agency_line,-24,7,4,4,12,-0.025002373,-0.160253568,3,,
1,23,7,1,23,136,html-slider-response,136,644688,4914,16,0.4,question_agency,question_agency_line,-24,8,3,7,5,-0.103231728,0.001065879,4,,
1,20,7,1,20,173,html-slider-response,173,816668,4477,4,0.4,question_agency,question_agency_line,-36,8,8,6,7,-0.009907574,0.268349078,5,,
1,27,7,1,27,40,html-slider-response,40,194565,3637,42,0.5,question_agency,question_agency_line,-8,7,7,9,7,0.393711813,0.350546278,1,,
1,29,7,1,29,80,html-slider-response,80,380306,3704,23,0.5,question_agency,question_agency_line,-27,4,5,4,3,0.26443274,0.098771816,2,,
1,28,7,1,28,120,html-slider-response,120,570408,4542,60,0.5,question_agency,question_agency_line,10,5,5,7,10,0.474327011,0.276782562,3,,
1,26,7,1,26,151,html-slider-response,151,720072,4969,42,0.5,question_agency,question_agency_line,-8,9,5,4,8,0.299429574,-0.217413804,4,,
1,25,7,1,25,158,html-slider-response,158,750590,5066,21,0.5,question_agency,question_agency_line,-29,7,4,6,6,-0.091748917,-0.201990339,5,,
1,30,7,1,30,28,html-slider-response,28,141291,7532,25,0.6,question_agency,question_agency_line,-35,10,10,11,8,0.05039117,0.23873254,1,,
1,32,7,1,32,56,html-slider-response,56,271181,6138,30,0.6,question_agency,question_agency_line,-30,9,7,7,5,0.264693151,0.546217575,2,,
1,33,7,1,33,99,html-slider-response,99,469909,11256,44,0.6,question_agency,question_agency_line,-16,5,8,4,7,-0.000954978,-0.036675384,3,,
1,34,7,1,34,130,html-slider-response,130,617343,5689,31,0.6,question_agency,question_agency_line,-29,5,8,6,8,-0.467155334,0.397319401,4,,
1,31,7,1,31,164,html-slider-response,164,777527,3370,42,0.6,question_agency,question_agency_line,-18,6,5,5,2,-0.293376158,0.470246634,5,,
1,36,7,1,36,49,html-slider-response,49,236575,6024,48,0.7,question_agency,question_agency_line,-22,7,5,6,5,-0.221981871,-0.33561592,1,,
1,39,7,1,39,74,html-slider-response,74,354784,3383,22,0.7,question_agency,question_agency_line,-48,6,8,9,8,0.058597292,0.080035227,2,,
1,35,7,1,35,114,html-slider-response,114,541651,4963,77,0.7,question_agency,question_agency_line,7,7,8,5,8,0.395049184,0.154609131,3,,
1,37,7,1,37,124,html-slider-response,124,585595,4361,60,0.7,question_agency,question_agency_line,-10,6,5,8,7,-0.011880845,-0.220304803,4,,
1,38,7,1,38,185,html-slider-response,185,869193,4130,48,0.7,question_agency,question_agency_line,-22,7,6,5,9,0.028008855,0.091145332,5,,
1,44,7,1,44,31,html-slider-response,31,155619,5315,54,0.8,question_agency,question_agency_line,-26,4,6,6,13,0.223759624,-0.271422972,1,,
1,43,7,1,43,71,html-slider-response,71,342383,5024,15,0.8,question_agency,question_agency_line,-65,7,7,9,9,0.099927163,-0.088164621,2,,
1,40,7,1,40,111,html-slider-response,111,527678,4691,72,0.8,question_agency,question_agency_line,-8,7,6,12,12,0.154878152,0.091398659,3,,
1,42,7,1,42,148,html-slider-response,148,706090,5333,64,0.8,question_agency,question_agency_line,-16,8,6,7,9,0.620880224,-0.081904677,4,,
1,41,7,1,41,176,html-slider-response,176,829078,3399,75,0.8,question_agency,question_agency_line,-5,9,7,7,4,0.602237375,-0.392767395,5,,
1,49,7,1,49,46,html-slider-response,46,221544,4433,97,0.9,question_agency,question_agency_line,7,5,6,12,11,-0.053479148,-0.133705243,1,,
1,47,7,1,47,62,html-slider-response,62,298821,3764,100,0.9,question_agency,question_agency_line,10,7,9,10,10,0.023198963,0.071618295,2,,
1,45,7,1,45,102,html-slider-response,102,483706,4788,89,0.9,question_agency,question_agency_line,-1,10,5,7,9,-0.245663887,-0.012944639,3,,
1,46,7,1,46,139,html-slider-response,139,664114,10416,15,0.9,question_agency,question_agency_line,-75,8,3,6,9,-0.010156956,0.154912388,4,,
1,48,7,1,48,167,html-slider-response,167,789850,3309,88,0.9,question_agency,question_agency_line,-2,8,7,6,11,-0.031232318,-0.179447107,5,,
1,54,7,1,54,22,html-slider-response,22,111498,7456,100,1,question_agency,question_agency_line,0,9,7,8,7,0.317774977,0.327469078,1,,
1,52,7,1,52,65,html-slider-response,65,312750,4915,100,1,question_agency,question_agency_line,0,6,7,8,9,-0.020209276,-0.007997952,2,,
1,51,7,1,51,117,html-slider-response,117,556853,6195,100,1,question_agency,question_agency_line,0,8,7,12,11,-0.175388945,0.326002138,3,,
1,50,7,1,50,133,html-slider-response,133,630756,4399,99,1,question_agency,question_agency_line,-1,8,6,12,13,0.146620302,-0.007975201,4,,
1,53,7,1,53,170,html-slider-response,170,803186,4326,100,1,question_agency,question_agency_line,0,9,7,3,6,-0.057424543,0.251505115,5,,
1,3,8,1,3,40,html-slider-response,40,163325,2931,13,0,question_agency,question_agency_line,13,7,5,16,10,0.135755941,-0.05500691,1,,
1,4,8,1,4,68,html-slider-response,68,275396,2518,13,0,question_agency,question_agency_line,13,3,5,8,2,0.268499492,-0.211210348,2,,
1,0,8,1,0,93,html-slider-response,93,370764,2973,5,0,question_agency,question_agency_line,5,7,6,16,6,-0.340712188,-0.371651392,3,,
1,2,8,1,2,154,html-slider-response,154,646949,2392,4,0,question_agency,question_agency_line,4,6,7,19,6,-0.160967708,-0.317880605,4,,
1,1,8,1,1,167,html-slider-response,167,706709,2590,10,0,question_agency,question_agency_line,10,6,6,14,0,-0.294434777,0,5,,
1,9,8,1,9,52,html-slider-response,52,212509,2349,8,0.1,question_agency,question_agency_line,-2,7,9,14,6,-0.028061095,0.405187794,1,,
1,7,8,1,7,59,html-slider-response,59,239628,3071,14,0.1,question_agency,question_agency_line,4,7,9,15,12,0.000573799,0.006532489,2,,
1,5,8,1,5,105,html-slider-response,105,420645,3396,24,0.1,question_agency,question_agency_line,14,6,7,5,8,-0.056450099,-0.246295591,3,,
1,8,8,1,8,130,html-slider-response,130,537597,3824,32,0.1,question_agency,question_agency_line,22,7,6,7,3,0.442705236,0.211618939,4,,
1,6,8,1,6,158,html-slider-response,158,672613,3930,17,0.1,question_agency,question_agency_line,7,10,8,16,3,-0.12918509,-0.221514742,5,,
1,12,8,1,12,31,html-slider-response,31,128541,3177,24,0.2,question_agency,question_agency_line,4,10,9,11,2,-0.073712554,-0.057021091,1,,
1,14,8,1,14,74,html-slider-response,74,299493,2646,12,0.2,question_agency,question_agency_line,-8,9,7,6,26,-0.033933611,-0.051321379,2,,
1,10,8,1,10,111,html-slider-response,111,444965,3484,25,0.2,question_agency,question_agency_line,5,5,5,6,4,0.340565315,-0.03363261,3,,
1,11,8,1,11,139,html-slider-response,139,583693,3605,33,0.2,question_agency,question_agency_line,13,9,8,6,4,0.354046904,-0.307685008,4,,
1,13,8,1,13,173,html-slider-response,173,730461,2603,18,0.2,question_agency,question_agency_line,-2,5,11,8,1,-0.057521251,0.005263606,5,,
1,17,8,1,17,22,html-slider-response,22,91189,5141,35,0.3,question_agency,question_agency_line,5,5,7,10,8,0.024107963,0.045976009,1,,
1,19,8,1,19,71,html-slider-response,71,287831,3422,24,0.3,question_agency,question_agency_line,-6,6,5,12,9,-0.239735587,-0.170057228,2,,
1,16,8,1,16,117,html-slider-response,117,469501,2034,67,0.3,question_agency,question_agency_line,37,7,6,11,9,0.3354463,0.084164669,3,,
1,15,8,1,15,142,html-slider-response,142,597565,4863,27,0.3,question_agency,question_agency_line,-3,8,6,11,2,-0.248657751,-0.075340106,4,,
1,18,8,1,18,188,html-slider-response,188,790094,2839,62,0.3,question_agency,question_agency_line,32,8,5,5,7,0.517733248,0.096415232,5,,
1,21,8,1,21,25,html-slider-response,25,103069,2865,33,0.4,question_agency,question_agency_line,-7,9,8,10,8,0.026353514,0.144707242,1,,
1,23,8,1,23,56,html-slider-response,56,227542,3181,36,0.4,question_agency,question_agency_line,-4,5,8,6,5,-0.238064823,0.024436735,2,,
1,24,8,1,24,102,html-slider-response,102,408237,3308,34,0.4,question_agency,question_agency_line,-6,7,5,11,6,0.052193551,-0.215559173,3,,
1,22,8,1,22,151,html-slider-response,151,635533,2856,71,0.4,question_agency,question_agency_line,31,5,6,8,2,-0.253889294,-0.314184332,4,,
1,20,8,1,20,179,html-slider-response,179,755037,3119,77,0.4,question_agency,question_agency_line,37,7,8,13,2,0.297046691,0.122495629,5,,
1,26,8,1,26,49,html-slider-response,49,201156,3473,36,0.5,question_agency,question_agency_line,-14,9,10,8,7,0.282045902,0.210303978,1,,
1,29,8,1,29,83,html-slider-response,83,334070,3365,67,0.5,question_agency,question_agency_line,17,7,9,7,6,-0.13397569,-0.22863263,2,,
1,27,8,1,27,114,html-slider-response,114,458453,4471,72,0.5,question_agency,question_agency_line,22,8,6,5,0,-0.133414644,0,3,,
1,28,8,1,28,133,html-slider-response,133,553573,6969,66,0.5,question_agency,question_agency_line,16,8,5,9,4,-0.09965485,-0.279386297,4,,
1,25,8,1,25,176,html-slider-response,176,742901,3426,74,0.5,question_agency,question_agency_line,24,8,10,7,2,0.044510492,0.190807077,5,,
1,33,8,1,33,46,html-slider-response,46,188668,2903,63,0.6,question_agency,question_agency_line,3,4,6,5,5,0.139813744,-0.254996002,1,,
1,32,8,1,32,80,html-slider-response,80,321685,1773,60,0.6,question_agency,question_agency_line,0,7,5,8,8,0.130244252,-0.626874986,2,,
1,34,8,1,34,108,html-slider-response,108,432470,2808,67,0.6,question_agency,question_agency_line,7,8,8,12,3,0.354836868,0.269185728,3,,
1,31,8,1,31,124,html-slider-response,124,509909,3849,77,0.6,question_agency,question_agency_line,17,7,7,13,6,0.096095675,-0.044703108,4,,
1,30,8,1,30,185,html-slider-response,185,778245,2968,80,0.6,question_agency,question_agency_line,20,6,6,9,4,0.157081614,-0.329894766,5,,
1,39,8,1,39,28,html-slider-response,28,116349,4273,50,0.7,question_agency,question_agency_line,-20,5,3,14,5,0.046633877,-0.390861748,1,,
1,35,8,1,35,77,html-slider-response,77,310901,2385,84,0.7,question_agency,question_agency_line,14,7,4,12,13,-0.270138349,-0.255591795,2,,
1,36,8,1,36,99,html-slider-response,99,395909,3325,79,0.7,question_agency,question_agency_line,9,5,6,7,10,0.15408048,-0.312847353,3,,
1,38,8,1,38,136,html-slider-response,136,571069,8483,67,0.7,question_agency,question_agency_line,-3,8,7,9,5,0.188076762,-0.177296951,4,,
1,37,8,1,37,170,html-slider-response,170,718837,3113,81,0.7,question_agency,question_agency_line,11,4,4,4,5,-0.125049824,0.225423108,5,,
1,41,8,1,41,37,html-slider-response,37,151381,1908,65,0.8,question_agency,question_agency_line,-15,8,6,11,10,0.116199834,-0.17032889,1,,
1,42,8,1,42,62,html-slider-response,62,252260,3627,69,0.8,question_agency,question_agency_line,-11,7,7,13,12,-0.179894312,-0.033368085,2,,
1,43,8,1,43,96,html-slider-response,96,383564,3789,85,0.8,question_agency,question_agency_line,5,5,5,9,6,-0.368857905,-0.199648354,3,,
1,44,8,1,44,148,html-slider-response,148,623653,4056,79,0.8,question_agency,question_agency_line,-1,7,5,8,6,-0.197208849,-0.00749059,4,,
1,40,8,1,40,182,html-slider-response,182,766253,2208,84,0.8,question_agency,question_agency_line,4,9,8,8,8,0.008250438,0.33314077,5,,
1,45,8,1,45,34,html-slider-response,34,140461,2910,64,0.9,question_agency,question_agency_line,-26,5,7,19,23,-0.292021916,0.005496777,1,,
1,47,8,1,47,86,html-slider-response,86,346116,3033,80,0.9,question_agency,question_agency_line,-10,3,8,7,6,0.079342909,0.254698325,2,,
1,49,8,1,49,90,html-slider-response,90,358773,1716,87,0.9,question_agency,question_agency_line,-3,6,6,14,14,-0.113116069,-0.044316974,3,,
1,48,8,1,48,127,html-slider-response,127,524757,5834,82,0.9,question_agency,question_agency_line,-8,9,6,11,12,-0.286820209,-0.0591035,4,,
1,46,8,1,46,164,html-slider-response,164,695110,2504,81,0.9,question_agency,question_agency_line,-9,5,8,15,12,0.040795558,-0.144338331,5,,
1,52,8,1,52,43,html-slider-response,43,176756,4417,100,1,question_agency,question_agency_line,0,6,8,16,13,-0.383142626,-0.153732744,1,,
1,53,8,1,53,65,html-slider-response,65,263869,2589,100,1,question_agency,question_agency_line,0,11,7,12,9,-0.085732663,0.27132463,2,,
1,54,8,1,54,120,html-slider-response,120,482061,3549,100,1,question_agency,question_agency_line,0,7,9,7,6,-0.078686949,-0.040008405,3,,
1,50,8,1,50,145,html-slider-response,145,610582,4000,80,1,question_agency,question_agency_line,-20,8,5,14,12,0.059807009,0.078904365,4,,
1,51,8,1,51,161,html-slider-response,161,683589,1965,93,1,question_agency,question_agency_line,-7,7,7,10,7,-0.404446377,-0.229000526,5,,
1,4,9,1,4,49,html-slider-response,49,404132,3975,0,0,question_agency,question_agency_line,0,6,8,28,32,-0.125352546,-0.249459783,1,,
1,3,9,1,3,68,html-slider-response,68,479247,2790,0,0,question_agency,question_agency_line,0,7,6,30,25,-0.109121002,-0.119719585,2,,
1,1,9,1,1,108,html-slider-response,108,645760,2569,0,0,question_agency,question_agency_line,0,6,7,14,57,-0.07975573,-0.212924,3,,
1,0,9,1,0,124,html-slider-response,124,704922,2284,0,0,question_agency,question_agency_line,0,7,6,25,30,-0.238733921,-0.213433621,4,,
1,2,9,1,2,179,html-slider-response,179,925717,3116,0,0,question_agency,question_agency_line,0,11,9,25,26,-0.077073914,0.017686467,5,,
1,6,9,1,6,28,html-slider-response,28,309477,4242,3,0.1,question_agency,question_agency_line,-7,12,10,25,23,0.031747725,-0.153757015,1,,
1,7,9,1,7,83,html-slider-response,83,540976,3502,0,0.1,question_agency,question_agency_line,-10,7,6,28,30,-0.021489037,-0.121238137,2,,
1,5,9,1,5,117,html-slider-response,117,681091,2598,1,0.1,question_agency,question_agency_line,-9,6,6,29,28,8.17E-05,-0.175167726,3,,
1,9,9,1,9,145,html-slider-response,145,793267,4627,11,0.1,question_agency,question_agency_line,1,4,5,18,23,0.213791239,-0.04551172,4,,
1,8,9,1,8,182,html-slider-response,182,938351,3629,0,0.1,question_agency,question_agency_line,-10,8,9,23,30,-0.178679166,0.034511504,5,,
1,13,9,1,13,37,html-slider-response,37,353069,5234,8,0.2,question_agency,question_agency_line,-12,5,7,28,28,-0.215160622,-0.227519979,1,,
1,11,9,1,11,86,html-slider-response,86,552458,2470,5,0.2,question_agency,question_agency_line,-15,7,8,20,29,0.199490286,-0.277954393,2,,
1,14,9,1,14,111,html-slider-response,111,656895,2131,11,0.2,question_agency,question_agency_line,-9,5,8,30,23,-0.271701683,0.196856501,3,,
1,10,9,1,10,151,html-slider-response,151,817078,3393,15,0.2,question_agency,question_agency_line,-5,7,8,22,26,-0.036469156,0.060294889,4,,
1,12,9,1,12,176,html-slider-response,176,913590,2562,1,0.2,question_agency,question_agency_line,-19,9,7,17,24,0.00387629,-0.10986582,5,,
1,19,9,1,19,25,html-slider-response,25,296224,8933,13,0.3,question_agency,question_agency_line,-17,10,9,17,23,0.219865893,-0.048378658,1,,
1,17,9,1,17,74,html-slider-response,74,503020,2397,8,0.3,question_agency,question_agency_line,-22,7,9,24,27,-0.091187507,0.044668403,2,,
1,16,9,1,16,105,html-slider-response,105,634174,3086,11,0.3,question_agency,question_agency_line,-19,7,8,19,29,0.265081751,-0.278308778,3,,
1,15,9,1,15,133,html-slider-response,133,744496,4561,15,0.3,question_agency,question_agency_line,-15,6,4,17,27,-0.119220283,-0.344594847,4,,
1,18,9,1,18,158,html-slider-response,158,841557,2280,12,0.3,question_agency,question_agency_line,-18,6,7,23,30,-0.175494088,-0.231014648,5,,
1,20,9,1,20,52,html-slider-response,52,416108,2971,10,0.4,question_agency,question_agency_line,-30,10,8,20,25,0.001947729,-0.088673043,1,,
1,23,9,1,23,80,html-slider-response,80,528470,2754,10,0.4,question_agency,question_agency_line,-30,10,8,27,27,-0.1105528,-0.259869934,2,,
1,21,9,1,21,120,html-slider-response,120,692381,2282,59,0.4,question_agency,question_agency_line,19,5,9,20,21,0.029140102,-0.053864614,3,,
1,22,9,1,22,130,html-slider-response,130,730924,3078,12,0.4,question_agency,question_agency_line,-28,7,5,26,23,-0.236465209,-0.193549516,4,,
1,24,9,1,24,164,html-slider-response,164,864442,2587,23,0.4,question_agency,question_agency_line,-17,8,9,21,22,-0.0985808,-0.061314368,5,,
1,26,9,1,26,34,html-slider-response,34,338829,4877,56,0.5,question_agency,question_agency_line,6,5,5,20,23,-0.240650657,-0.565982108,1,,
1,29,9,1,29,77,html-slider-response,77,516700,4672,15,0.5,question_agency,question_agency_line,-35,8,6,19,25,-0.043380612,-0.047475281,2,,
1,27,9,1,27,114,html-slider-response,114,669533,3630,28,0.5,question_agency,question_agency_line,-22,7,6,28,17,-0.094664921,-0.154540658,3,,
1,25,9,1,25,139,html-slider-response,139,767378,2699,41,0.5,question_agency,question_agency_line,-9,5,9,22,21,-0.130742249,-0.272033498,4,,
1,28,9,1,28,161,html-slider-response,161,852846,2279,14,0.5,question_agency,question_agency_line,-36,6,5,24,21,-0.12211039,-0.014859365,5,,
1,34,9,1,34,31,html-slider-response,31,324947,6465,61,0.6,question_agency,question_agency_line,1,5,8,23,32,-0.28972538,-0.054249481,1,,
1,32,9,1,32,71,html-slider-response,71,491604,3353,38,0.6,question_agency,question_agency_line,-22,9,9,21,23,-0.184110353,-0.080981603,2,,
1,30,9,1,30,93,html-slider-response,93,583913,9175,12,0.6,question_agency,question_agency_line,-48,10,10,16,26,-0.368125162,-0.084401092,3,,
1,31,9,1,31,136,html-slider-response,136,755668,2160,60,0.6,question_agency,question_agency_line,0,6,10,21,27,0.083954092,0.123289994,4,,
1,33,9,1,33,185,html-slider-response,185,952961,5600,41,0.6,question_agency,question_agency_line,-19,6,9,16,32,-0.499003554,-0.116535329,5,,
1,35,9,1,35,22,html-slider-response,22,278285,11123,75,0.7,question_agency,question_agency_line,5,9,8,16,23,-0.038629287,-0.0228745,1,,
1,38,9,1,38,56,html-slider-response,56,430254,2498,54,0.7,question_agency,question_agency_line,-16,6,7,23,22,-0.088393601,0.03327693,2,,
1,37,9,1,37,96,html-slider-response,96,597552,4631,79,0.7,question_agency,question_agency_line,9,5,6,15,17,0.248210895,-0.192392693,3,,
1,39,9,1,39,127,html-slider-response,127,718841,4911,63,0.7,question_agency,question_agency_line,-7,7,7,14,19,-0.10886665,-0.144321512,4,,
1,36,9,1,36,188,html-slider-response,188,967511,5530,70,0.7,question_agency,question_agency_line,0,7,8,19,24,0.083594844,0.036134367,5,,
1,40,9,1,40,40,html-slider-response,40,365508,3427,98,0.8,question_agency,question_agency_line,18,9,8,19,25,0.276951326,-0.090277007,1,,
1,42,9,1,42,59,html-slider-response,59,443645,4383,80,0.8,question_agency,question_agency_line,0,9,8,12,15,0.379912142,-0.01462681,2,,
1,44,9,1,44,99,html-slider-response,99,610501,3943,82,0.8,question_agency,question_agency_line,2,9,11,14,21,0.175084977,0.007257845,3,,
1,43,9,1,43,148,html-slider-response,148,804673,2394,90,0.8,question_agency,question_agency_line,10,7,9,16,20,0.066920693,-0.303606203,4,,
1,41,9,1,41,173,html-slider-response,173,902016,3327,91,0.8,question_agency,question_agency_line,11,8,8,16,33,0.095414645,0.033160818,5,,
1,49,9,1,49,43,html-slider-response,43,378407,3886,98,0.9,question_agency,question_agency_line,8,7,8,21,21,-0.156790106,-0.056263989,1,,
1,46,9,1,46,62,html-slider-response,62,455017,2355,96,0.9,question_agency,question_agency_line,6,9,7,15,18,-0.191866967,0.036522353,2,,
1,47,9,1,47,90,html-slider-response,90,565728,2962,99,0.9,question_agency,question_agency_line,9,8,8,15,29,-0.02227218,0.016552742,3,,
1,45,9,1,45,154,html-slider-response,154,829067,2978,98,0.9,question_agency,question_agency_line,8,8,6,8,21,0.144887163,-0.113528473,4,,
1,48,9,1,48,170,html-slider-response,170,889679,4179,96,0.9,question_agency,question_agency_line,6,7,7,10,21,-0.401076528,-0.097019749,5,,
1,52,9,1,52,46,html-slider-response,46,391154,3740,100,1,question_agency,question_agency_line,0,7,5,19,25,0.223084453,0.033048426,1,,
1,53,9,1,53,65,html-slider-response,65,467447,3425,100,1,question_agency,question_agency_line,0,8,9,22,23,-0.142973287,-0.377819598,2,,
1,54,9,1,54,102,html-slider-response,102,622076,2564,100,1,question_agency,question_agency_line,0,6,4,19,26,0.050995042,-0.054814784,3,,
1,51,9,1,51,142,html-slider-response,142,779631,3245,100,1,question_agency,question_agency_line,0,6,6,19,24,0.218574728,0.086976963,4,,
1,50,9,1,50,167,html-slider-response,167,876491,3038,100,1,question_agency,question_agency_line,0,6,5,22,29,0.191077643,-0.210094832,5,,
1,0,10,1,0,22,html-slider-response,22,79534,4435,0,0,question_agency,question_agency_line,0,6,7,4,11,-0.378432124,0.560130518,1,,
1,4,10,1,4,68,html-slider-response,68,265443,2493,28,0,question_agency,question_agency_line,28,5,6,8,18,0.245628516,0.083405975,2,,
1,1,10,1,1,108,html-slider-response,108,422437,2634,0,0,question_agency,question_agency_line,0,8,5,3,8,0.138460679,0.063502144,3,,
1,2,10,1,2,133,html-slider-response,133,525293,2109,0,0,question_agency,question_agency_line,0,10,11,8,10,-0.208099276,-0.207817023,4,,
1,3,10,1,3,170,html-slider-response,170,672946,2542,7,0,question_agency,question_agency_line,7,10,11,7,11,0.095874037,0.139007425,5,,
1,5,10,1,5,31,html-slider-response,31,122408,3074,21,0.1,question_agency,question_agency_line,11,8,3,8,12,0.21539354,0.205727645,1,,
1,8,10,1,8,83,html-slider-response,83,322268,2139,31,0.1,question_agency,question_agency_line,21,8,6,6,15,0.060479448,0.494300886,2,,
1,7,10,1,7,99,html-slider-response,99,387021,2572,0,0.1,question_agency,question_agency_line,-10,6,8,7,5,0.292152519,0.417980039,3,,
1,9,10,1,9,148,html-slider-response,148,584899,3577,30,0.1,question_agency,question_agency_line,20,7,4,8,12,-0.175392679,-0.28803421,4,,
1,6,10,1,6,167,html-slider-response,167,661397,2690,18,0.1,question_agency,question_agency_line,8,8,4,4,17,0.351536304,-0.150186705,5,,
1,13,10,1,13,52,html-slider-response,52,206452,2995,6,0.2,question_agency,question_agency_line,-14,4,7,5,11,-0.175451489,-0.267760288,1,,
1,10,10,1,10,77,html-slider-response,77,300297,2987,0,0.2,question_agency,question_agency_line,-20,9,10,4,7,0.263742062,0.450094572,2,,
1,12,10,1,12,117,html-slider-response,117,456663,2181,17,0.2,question_agency,question_agency_line,-3,9,8,5,6,-0.57296266,0.248393469,3,,
1,11,10,1,11,151,html-slider-response,151,596244,2340,19,0.2,question_agency,question_agency_line,-1,6,5,4,6,0.21098574,-0.202245076,4,,
1,14,10,1,14,158,html-slider-response,158,624627,5358,60,0.2,question_agency,question_agency_line,40,4,6,8,10,0.450840855,0.120783307,5,,
1,17,10,1,17,49,html-slider-response,49,194449,2403,48,0.3,question_agency,question_agency_line,18,10,8,5,5,0.349246307,0.350347571,1,,
1,16,10,1,16,65,html-slider-response,65,253945,2005,21,0.3,question_agency,question_agency_line,-9,5,6,13,10,0.384116508,-0.21917129,2,,
1,19,10,1,19,102,html-slider-response,102,399991,3965,0,0.3,question_agency,question_agency_line,-30,9,5,15,4,0.137065696,0.246220049,3,,
1,18,10,1,18,127,html-slider-response,127,501803,5281,22,0.3,question_agency,question_agency_line,-8,6,4,6,8,0.200337642,-0.080234664,4,,
1,15,10,1,15,179,html-slider-response,179,708334,1833,32,0.3,question_agency,question_agency_line,2,7,6,12,15,0.123245353,0.018879529,5,,
1,22,10,1,22,25,html-slider-response,25,98489,9945,50,0.4,question_agency,question_agency_line,10,7,6,3,5,0.206736691,0.235554881,1,,
1,21,10,1,21,71,html-slider-response,71,276061,1609,30,0.4,question_agency,question_agency_line,-10,5,8,6,3,0.245341837,-0.069613645,2,,
1,20,10,1,20,114,html-slider-response,114,445475,2282,39,0.4,question_agency,question_agency_line,-1,7,6,6,7,0.138044448,-0.18072721,3,,
1,23,10,1,23,145,html-slider-response,145,572317,2794,45,0.4,question_agency,question_agency_line,5,7,9,5,10,0.379150987,0.434235941,4,,
1,24,10,1,24,182,html-slider-response,182,719717,2376,15,0.4,question_agency,question_agency_line,-25,7,6,3,17,-0.246044389,-0.169130652,5,,
1,28,10,1,28,34,html-slider-response,34,134953,3538,40,0.5,question_agency,question_agency_line,-10,7,10,3,6,0.261282203,-0.377036894,1,,
1,27,10,1,27,80,html-slider-response,80,311122,1817,63,0.5,question_agency,question_agency_line,13,6,4,7,6,0.149561336,0.418333826,2,,
1,25,10,1,25,120,html-slider-response,120,467256,1587,50,0.5,question_agency,question_agency_line,0,6,9,3,7,0.474272817,0.066912625,3,,
1,29,10,1,29,139,html-slider-response,139,548671,2898,61,0.5,question_agency,question_agency_line,11,7,9,3,4,0.31216198,-0.275556626,4,,
1,26,10,1,26,161,html-slider-response,161,636801,3168,48,0.5,question_agency,question_agency_line,-2,7,8,4,7,-0.145962686,-0.126917293,5,,
1,34,10,1,34,40,html-slider-response,40,161112,4826,83,0.6,question_agency,question_agency_line,23,11,7,4,8,-0.217255374,-0.03709741,1,,
1,33,10,1,33,86,html-slider-response,86,340731,9456,50,0.6,question_agency,question_agency_line,-10,7,10,10,6,-0.137938143,0.205885442,2,,
1,32,10,1,32,105,html-slider-response,105,410797,1801,92,0.6,question_agency,question_agency_line,32,9,7,8,14,0.476061821,0.2170207,3,,
1,30,10,1,30,130,html-slider-response,130,514178,3370,37,0.6,question_agency,question_agency_line,-23,6,6,5,8,0.118248261,-0.047278192,4,,
1,31,10,1,31,164,html-slider-response,164,649702,3896,58,0.6,question_agency,question_agency_line,-2,7,3,7,9,0.184486055,0.049289249,5,,
1,36,10,1,36,37,html-slider-response,37,147277,3316,69,0.7,question_agency,question_agency_line,-1,6,9,6,7,-0.029946781,0.526953471,1,,
1,38,10,1,38,62,html-slider-response,62,242933,2972,87,0.7,question_agency,question_agency_line,17,8,7,8,10,0.03266527,0.209978436,2,,
1,39,10,1,39,111,html-slider-response,111,434188,2746,89,0.7,question_agency,question_agency_line,19,8,8,10,9,-0.332003298,0.151158486,3,,
1,35,10,1,35,124,html-slider-response,124,487516,10286,62,0.7,question_agency,question_agency_line,-8,7,8,7,12,-0.098922973,0.103495284,4,,
1,37,10,1,37,176,html-slider-response,176,697496,2480,98,0.7,question_agency,question_agency_line,28,9,10,10,10,-0.135904206,0.291576323,5,,
1,44,10,1,44,43,html-slider-response,43,172155,2034,93,0.8,question_agency,question_agency_line,13,7,6,4,3,0.268608874,-0.1076828,1,,
1,43,10,1,43,59,html-slider-response,59,230954,2388,93,0.8,question_agency,question_agency_line,13,7,7,7,12,-0.023366567,-0.023825053,2,,
1,41,10,1,41,93,html-slider-response,93,364457,1779,98,0.8,question_agency,question_agency_line,18,4,5,4,5,-0.50430406,-0.089798245,3,,
1,42,10,1,42,142,html-slider-response,142,560518,2841,70,0.8,question_agency,question_agency_line,-10,4,6,9,11,0.533808435,-0.028066934,4,,
1,40,10,1,40,185,html-slider-response,185,730525,1803,93,0.8,question_agency,question_agency_line,13,6,4,8,10,0.286589303,-0.134871114,5,,
1,49,10,1,49,46,html-slider-response,46,183038,1877,97,0.9,question_agency,question_agency_line,7,5,7,7,6,0.463253402,-0.329784008,1,,
1,47,10,1,47,74,html-slider-response,74,288304,3236,98,0.9,question_agency,question_agency_line,8,5,6,8,5,-0.21359238,-0.075180647,2,,
1,48,10,1,48,90,html-slider-response,90,353671,2288,98,0.9,question_agency,question_agency_line,8,6,6,8,15,-0.216593912,0.025448296,3,,
1,46,10,1,46,154,html-slider-response,154,609313,4063,77,0.9,question_agency,question_agency_line,-13,7,7,14,19,-0.262241913,0.229158917,4,,
1,45,10,1,45,173,html-slider-response,173,686011,4060,97,0.9,question_agency,question_agency_line,7,6,6,10,11,-0.207791617,0.13450896,5,,
1,53,10,1,53,28,html-slider-response,28,110326,2827,100,1,question_agency,question_agency_line,0,8,9,12,14,0.033830973,-0.021288689,1,,
1,50,10,1,50,56,html-slider-response,56,219558,3050,100,1,question_agency,question_agency_line,0,7,7,6,6,-0.041205354,-0.205134184,2,,
1,52,10,1,52,96,html-slider-response,96,375442,1980,100,1,question_agency,question_agency_line,0,6,6,6,8,-0.165505959,-0.201212761,3,,
1,51,10,1,51,136,html-slider-response,136,536769,2469,100,1,question_agency,question_agency_line,0,8,7,6,9,0.652365719,-0.164446097,4,,
1,54,10,1,54,188,html-slider-response,188,741325,1794,100,1,question_agency,question_agency_line,0,7,6,4,4,3.66E-18,-0.340740624,5,,
1,1,11,1,1,37,html-slider-response,37,262200,3319,0,0,question_agency,question_agency_line,0,4,6,9,6,0.18748912,-0.100423499,1,,
1,3,11,1,3,77,html-slider-response,77,430065,3266,0,0,question_agency,question_agency_line,0,6,4,7,8,0.246175574,0.356072104,2,,
1,2,11,1,2,93,html-slider-response,93,497870,2965,6,0,question_agency,question_agency_line,6,4,7,11,19,-0.116601727,0.207682447,3,,
1,0,11,1,0,145,html-slider-response,145,710396,3139,32,0,question_agency,question_agency_line,32,5,9,8,7,-0.247729644,-0.437118047,4,,
1,4,11,1,4,185,html-slider-response,185,877703,2558,58,0,question_agency,question_agency_line,58,7,6,9,10,0.033117527,-0.309159971,5,,
1,7,11,1,7,28,html-slider-response,28,224951,2737,9,0.1,question_agency,question_agency_line,-1,6,9,7,4,0.193684687,-0.010364116,1,,
1,6,11,1,6,65,html-slider-response,65,379475,3113,4,0.1,question_agency,question_agency_line,-6,4,5,5,4,-0.40390917,0.219981246,2,,
1,9,11,1,9,90,html-slider-response,90,485897,3975,0,0.1,question_agency,question_agency_line,-10,10,7,7,8,-0.01665095,-0.539131611,3,,
1,5,11,1,5,130,html-slider-response,130,650275,1941,0,0.1,question_agency,question_agency_line,-10,6,6,6,5,0.234604707,0.102397694,4,,
1,8,11,1,8,158,html-slider-response,158,765624,8621,68,0.1,question_agency,question_agency_line,58,6,6,4,6,0.534109907,0.298506973,5,,
1,13,11,1,13,49,html-slider-response,49,314383,3465,32,0.2,question_agency,question_agency_line,12,7,6,5,6,0.532794438,0.474960477,1,,
1,14,11,1,14,71,html-slider-response,71,405367,4984,3,0.2,question_agency,question_agency_line,-17,8,10,6,9,0.505770576,0.049416225,2,,
1,10,11,1,10,102,html-slider-response,102,537290,2509,0,0.2,question_agency,question_agency_line,-20,7,7,10,6,-0.379090848,-0.083377459,3,,
1,12,11,1,12,139,html-slider-response,139,686145,3318,17,0.2,question_agency,question_agency_line,-3,9,7,3,2,0.229743116,0.129831574,4,,
1,11,11,1,11,188,html-slider-response,188,892162,5454,56,0.2,question_agency,question_agency_line,36,7,7,5,4,0.079116883,0.50337029,5,,
1,19,11,1,19,34,html-slider-response,34,249871,2490,44,0.3,question_agency,question_agency_line,14,7,5,9,4,0.172599873,-0.2766403,1,,
1,18,11,1,18,68,html-slider-response,68,391375,2892,28,0.3,question_agency,question_agency_line,-2,9,8,8,6,0.012874324,0.139260095,2,,
1,17,11,1,17,105,html-slider-response,105,550131,3836,39,0.3,question_agency,question_agency_line,9,7,8,8,7,-0.295693479,0.243449772,3,,
1,15,11,1,15,133,html-slider-response,133,661883,2602,18,0.3,question_agency,question_agency_line,-12,5,8,4,5,-0.098810404,0.766629087,4,,
1,16,11,1,16,170,html-slider-response,170,814235,3112,28,0.3,question_agency,question_agency_line,-2,8,8,6,8,-0.001642263,-0.261803984,5,,
1,23,11,1,23,31,html-slider-response,31,238370,4408,8,0.4,question_agency,question_agency_line,-32,7,5,4,3,0.096617214,0.281752952,1,,
1,22,11,1,22,62,html-slider-response,62,367352,3657,40,0.4,question_agency,question_agency_line,0,7,8,10,4,0.419381924,-0.160086898,2,,
1,24,11,1,24,108,html-slider-response,108,563106,3968,5,0.4,question_agency,question_agency_line,-35,8,7,4,3,-0.449832963,0.057065044,3,,
1,20,11,1,20,142,html-slider-response,142,698246,3092,30,0.4,question_agency,question_agency_line,-10,9,6,8,6,0.111201286,0.146167035,4,,
1,21,11,1,21,176,html-slider-response,176,838377,3240,7,0.4,question_agency,question_agency_line,-33,8,7,6,8,0.061595819,-0.461596272,5,,
1,28,11,1,28,25,html-slider-response,25,213202,1936,13,0.5,question_agency,question_agency_line,-37,6,10,2,4,-0.099838118,-0.162859405,1,,
1,29,11,1,29,74,html-slider-response,74,417790,3416,13,0.5,question_agency,question_agency_line,-37,6,9,4,5,-0.263650937,0.078827876,2,,
1,27,11,1,27,99,html-slider-response,99,525772,2373,63,0.5,question_agency,question_agency_line,13,7,7,7,4,0.289827099,0.371373359,3,,
1,25,11,1,25,124,html-slider-response,124,626862,2691,70,0.5,question_agency,question_agency_line,20,9,7,10,7,0.26883741,0.140218423,4,,
1,26,11,1,26,161,html-slider-response,161,777218,2587,17,0.5,question_agency,question_agency_line,-33,6,8,10,8,-0.124743575,-0.191933852,5,,
1,30,11,1,30,46,html-slider-response,46,301911,4595,55,0.6,question_agency,question_agency_line,-5,8,6,10,9,0.178269074,-0.013284655,1,,
1,33,11,1,33,83,html-slider-response,83,455825,4406,69,0.6,question_agency,question_agency_line,9,8,8,8,7,-0.396895331,0.234713161,2,,
1,31,11,1,31,96,html-slider-response,96,514389,7509,82,0.6,question_agency,question_agency_line,22,6,8,10,6,0.193335088,0.110113753,3,,
1,34,11,1,34,136,html-slider-response,136,673820,2930,49,0.6,question_agency,question_agency_line,-11,7,6,8,12,0.1502184,0.198165434,4,,
1,32,11,1,32,173,html-slider-response,173,826131,2890,42,0.6,question_agency,question_agency_line,-18,7,7,7,6,0.398627895,0.149130183,5,,
1,37,11,1,37,43,html-slider-response,43,288310,3095,64,0.7,question_agency,question_agency_line,-6,5,7,7,6,0.375867503,0.101833335,1,,
1,38,11,1,38,80,html-slider-response,80,442409,3336,80,0.7,question_agency,question_agency_line,10,9,6,3,6,-0.269584221,0.388201275,2,,
1,39,11,1,39,114,html-slider-response,114,588654,3334,92,0.7,question_agency,question_agency_line,22,9,7,17,11,0.039271843,0.021802623,3,,
1,35,11,1,35,151,html-slider-response,151,733922,2506,91,0.7,question_agency,question_agency_line,21,8,7,9,8,-0.611910485,0.029946509,4,,
1,36,11,1,36,179,html-slider-response,179,854640,7253,71,0.7,question_agency,question_agency_line,1,3,5,5,4,-0.069626013,0.216673032,5,,
1,43,11,1,43,52,html-slider-response,52,326746,3356,63,0.8,question_agency,question_agency_line,-17,8,4,6,7,0.463690576,0.21291351,1,,
1,42,11,1,42,59,html-slider-response,59,354684,4320,65,0.8,question_agency,question_agency_line,-15,9,10,11,10,0.019396932,-0.139761444,2,,
1,41,11,1,41,117,html-slider-response,117,600806,3143,87,0.8,question_agency,question_agency_line,7,7,6,6,5,0.538672602,-0.620535949,3,,
1,44,11,1,44,127,html-slider-response,127,639326,3457,65,0.8,question_agency,question_agency_line,-15,7,11,4,2,-0.567041914,0.373474741,4,,
1,40,11,1,40,182,html-slider-response,182,866138,2491,84,0.8,question_agency,question_agency_line,4,5,6,9,8,0.428031823,-0.24544516,5,,
1,45,11,1,45,40,html-slider-response,40,276208,5001,98,0.9,question_agency,question_agency_line,8,7,8,6,5,-0.16432165,0.134280475,1,,
1,46,11,1,46,56,html-slider-response,56,341355,3890,92,0.9,question_agency,question_agency_line,2,6,6,9,8,-0.081745264,-0.42025768,2,,
1,49,11,1,49,120,html-slider-response,120,612633,2819,85,0.9,question_agency,question_agency_line,-5,7,8,4,4,-0.525689132,-0.020359833,3,,
1,48,11,1,48,154,html-slider-response,154,745925,2997,94,0.9,question_agency,question_agency_line,4,8,7,10,7,-0.011390665,-0.42722503,4,,
1,47,11,1,47,164,html-slider-response,164,789255,3030,93,0.9,question_agency,question_agency_line,3,8,8,12,13,0.208982497,-0.132639201,5,,
1,54,11,1,54,22,html-slider-response,22,202257,3862,100,1,question_agency,question_agency_line,0,7,9,8,7,0.341642439,-0.1118391,1,,
1,51,11,1,51,86,html-slider-response,86,469058,4225,100,1,question_agency,question_agency_line,0,5,6,12,12,-0.185021094,0.495570159,2,,
1,50,11,1,50,111,html-slider-response,111,576312,4198,100,1,question_agency,question_agency_line,0,7,4,11,10,0.246230257,0.253737338,3,,
1,52,11,1,52,148,html-slider-response,148,722408,3003,100,1,question_agency,question_agency_line,0,4,9,7,7,-0.230012117,0.329649149,4,,
1,53,11,1,53,167,html-slider-response,167,802115,3853,100,1,question_agency,question_agency_line,0,6,6,3,4,-0.322965697,0.15561514,5,,
1,4,12,1,4,52,html-slider-response,52,386383,4085,38,0,question_agency,question_agency_line,38,8,10,22,17,-0.395467144,-0.373776672,1,,
1,3,12,1,3,68,html-slider-response,68,459491,5370,12,0,question_agency,question_agency_line,12,8,8,28,19,0.221878159,0.050894379,2,,
1,2,12,1,2,120,html-slider-response,120,726755,4308,0,0,question_agency,question_agency_line,0,7,8,11,4,0.032477076,-0.228470848,3,,
1,1,12,1,1,145,html-slider-response,145,927661,3651,30,0,question_agency,question_agency_line,30,10,10,10,11,0.288906853,-0.022047321,4,,
1,0,12,1,0,188,html-slider-response,188,1120288,3478,13,0,question_agency,question_agency_line,13,11,9,0,0,0,0,5,,
1,5,12,1,5,25,html-slider-response,25,274042,3702,40,0.1,question_agency,question_agency_line,30,6,3,9,8,-0.002944342,0.373089001,1,,
1,7,12,1,7,77,html-slider-response,77,496763,2940,45,0.1,question_agency,question_agency_line,35,9,9,8,19,-0.137466516,0.13681672,2,,
1,6,12,1,6,108,html-slider-response,108,676068,3495,1,0.1,question_agency,question_agency_line,-9,10,6,8,11,-0.517084777,0.161158547,3,,
1,8,12,1,8,133,html-slider-response,133,879120,3175,23,0.1,question_agency,question_agency_line,13,7,5,8,14,-0.317959254,-0.089111932,4,,
1,9,12,1,9,185,html-slider-response,185,1107792,3808,0,0.1,question_agency,question_agency_line,-10,8,11,17,26,-0.058616647,0.129747152,5,,
1,14,12,1,14,34,html-slider-response,34,310771,4197,5,0.2,question_agency,question_agency_line,-15,6,7,13,8,0.031732755,-0.03063033,1,,
1,10,12,1,10,86,html-slider-response,86,536755,6170,46,0.2,question_agency,question_agency_line,26,6,8,7,10,-0.200789501,-0.116006698,2,,
1,11,12,1,11,99,html-slider-response,99,638648,2990,47,0.2,question_agency,question_agency_line,27,6,11,14,6,-0.249701352,0.379645702,3,,
1,13,12,1,13,136,html-slider-response,136,891307,3178,22,0.2,question_agency,question_agency_line,2,7,4,12,8,-0.16300228,-0.037984345,4,,
1,12,12,1,12,179,html-slider-response,179,1081020,2794,1,0.2,question_agency,question_agency_line,-19,10,6,12,10,-0.18038712,0.063889525,5,,
1,16,12,1,16,37,html-slider-response,37,322899,3119,0,0.3,question_agency,question_agency_line,-30,7,4,6,25,0.111580359,-0.063857436,1,,
1,15,12,1,15,62,html-slider-response,62,423821,2950,18,0.3,question_agency,question_agency_line,-12,4,9,3,13,0.192425688,-0.20260026,2,,
1,18,12,1,18,90,html-slider-response,90,602298,3140,10,0.3,question_agency,question_agency_line,-20,7,7,40,28,0.093955439,0.087768974,3,,
1,19,12,1,19,130,html-slider-response,130,866926,3947,47,0.3,question_agency,question_agency_line,17,8,5,10,11,0.266714922,-0.541887561,4,,
1,17,12,1,17,161,html-slider-response,161,1000294,4018,80,0.3,question_agency,question_agency_line,50,6,7,13,8,0.171542752,0.337684653,5,,
1,20,12,1,20,49,html-slider-response,49,373282,2593,64,0.4,question_agency,question_agency_line,24,8,8,17,19,0.245289721,-0.011240377,1,,
1,21,12,1,21,65,html-slider-response,65,445101,12263,10,0.4,question_agency,question_agency_line,-30,5,7,7,12,0.456235577,-0.113143087,2,,
1,22,12,1,22,114,html-slider-response,114,701760,3917,14,0.4,question_agency,question_agency_line,-26,9,8,4,2,-0.161870028,0.113476874,3,,
1,24,12,1,24,142,html-slider-response,142,914991,3287,30,0.4,question_agency,question_agency_line,-10,7,7,12,12,0.150297452,-0.033478226,4,,
1,23,12,1,23,182,html-slider-response,182,1094960,4932,10,0.4,question_agency,question_agency_line,-30,6,7,8,24,0.401417116,-0.093583667,5,,
1,28,12,1,28,28,html-slider-response,28,285823,2766,70,0.5,question_agency,question_agency_line,20,13,11,14,19,0.029030999,0.054099371,1,,
1,27,12,1,27,59,html-slider-response,59,411857,2770,34,0.5,question_agency,question_agency_line,-16,7,3,32,41,0.0350298,0.180739993,2,,
1,29,12,1,29,102,html-slider-response,102,650259,2602,56,0.5,question_agency,question_agency_line,6,7,8,6,14,-0.051541943,0.359721374,3,,
1,25,12,1,25,154,html-slider-response,154,967603,6176,28,0.5,question_agency,question_agency_line,-22,6,8,4,0,-0.267878582,0,4,,
1,26,12,1,26,167,html-slider-response,167,1030347,4455,55,0.5,question_agency,question_agency_line,5,6,6,14,10,-0.13562185,0.180479749,5,,
1,33,12,1,33,40,html-slider-response,40,335353,3435,21,0.6,question_agency,question_agency_line,-39,10,8,13,10,0.099329308,-0.09146693,1,,
1,32,12,1,32,80,html-slider-response,80,509299,3525,53,0.6,question_agency,question_agency_line,-7,6,7,4,11,0.006397456,0.088400689,2,,
1,31,12,1,31,93,html-slider-response,93,614878,3571,52,0.6,question_agency,question_agency_line,-8,8,8,17,21,0.266234074,0.226467804,3,,
1,34,12,1,34,139,html-slider-response,139,902693,2368,23,0.6,question_agency,question_agency_line,-37,5,3,8,4,0.219810845,0.181954595,4,,
1,30,12,1,30,164,html-slider-response,164,1016860,7540,39,0.6,question_agency,question_agency_line,-21,4,6,2,4,0.383841685,-0.078053448,5,,
1,39,12,1,39,46,html-slider-response,46,361678,3593,74,0.7,question_agency,question_agency_line,4,8,7,10,29,0.00307,0.197182962,1,,
1,38,12,1,38,56,html-slider-response,56,400077,2373,61,0.7,question_agency,question_agency_line,-9,8,5,74,20,-0.129737573,0.148422778,2,,
1,35,12,1,35,117,html-slider-response,117,713428,2646,78,0.7,question_agency,question_agency_line,8,6,7,14,13,-0.194192319,-0.221689436,3,,
1,37,12,1,37,124,html-slider-response,124,841583,2643,81,0.7,question_agency,question_agency_line,11,8,4,24,26,-0.188085342,-0.079212684,4,,
1,36,12,1,36,173,html-slider-response,173,1054569,3427,53,0.7,question_agency,question_agency_line,-17,7,6,19,18,0.225928885,-0.06147063,5,,
1,42,12,1,42,22,html-slider-response,22,261329,3630,21,0.8,question_agency,question_agency_line,-59,8,9,0,0,0,0,1,,
1,44,12,1,44,83,html-slider-response,83,521567,3255,58,0.8,question_agency,question_agency_line,-22,7,5,20,14,0.158822709,0.310495067,2,,
1,43,12,1,43,111,html-slider-response,111,688827,3737,31,0.8,question_agency,question_agency_line,-49,6,8,3,2,0.2189586,0.088446478,3,,
1,41,12,1,41,151,html-slider-response,151,952405,3618,91,0.8,question_agency,question_agency_line,11,11,7,27,21,-0.066360391,-0.159507923,4,,
1,40,12,1,40,170,html-slider-response,170,1042116,2744,50,0.8,question_agency,question_agency_line,-30,8,8,23,21,0.015856654,-0.056060006,5,,
1,47,12,1,47,43,html-slider-response,43,349072,4706,59,0.9,question_agency,question_agency_line,-31,7,4,13,16,0.070824878,0.093089519,1,,
1,45,12,1,45,74,html-slider-response,74,484804,3785,98,0.9,question_agency,question_agency_line,8,10,9,16,26,0.193484787,-0.050029633,2,,
1,49,12,1,49,105,html-slider-response,105,663559,4285,100,0.9,question_agency,question_agency_line,10,6,9,20,27,-0.042057933,0.102140551,3,,
1,48,12,1,48,148,html-slider-response,148,939772,3093,91,0.9,question_agency,question_agency_line,1,7,6,14,16,0.152651054,0.498740797,4,,
1,46,12,1,46,176,html-slider-response,176,1069215,5637,57,0.9,question_agency,question_agency_line,-33,8,4,12,9,0.089822111,0.062669149,5,,
1,54,12,1,54,31,html-slider-response,31,297553,2712,100,1,question_agency,question_agency_line,0,6,6,16,16,-0.230112511,-0.061029318,1,,
1,53,12,1,53,71,html-slider-response,71,472003,3485,100,1,question_agency,question_agency_line,0,5,6,58,12,-0.073270179,-0.081571881,2,,
1,52,12,1,52,96,html-slider-response,96,626643,2752,69,1,question_agency,question_agency_line,-31,6,9,21,22,-0.156508381,-0.013663394,3,,
1,50,12,1,50,127,html-slider-response,127,853969,3365,96,1,question_agency,question_agency_line,-4,8,7,33,27,-0.002102595,-0.085692541,4,,
1,51,12,1,51,158,html-slider-response,158,987253,4960,94,1,question_agency,question_agency_line,-6,6,7,33,11,-0.089458886,-0.196304634,5,,
1,3,13,1,3,40,html-slider-response,40,164406,3089,0,0,question_agency,question_agency_line,0,4,5,19,17,-0.214895014,-0.195986377,1,,
1,4,13,1,4,56,html-slider-response,56,226356,3207,8,0,question_agency,question_agency_line,8,7,9,31,26,-0.004382864,-0.053994768,2,,
1,2,13,1,2,120,html-slider-response,120,490400,2446,0,0,question_agency,question_agency_line,0,6,7,31,26,-0.324022565,-0.091287522,3,,
1,1,13,1,1,139,html-slider-response,139,565540,7607,1,0,question_agency,question_agency_line,1,7,8,25,15,0.040418154,0.098992787,4,,
1,0,13,1,0,188,html-slider-response,188,758968,2529,0,0,question_agency,question_agency_line,0,6,6,33,30,-0.017101837,-0.277027529,5,,
1,9,13,1,9,22,html-slider-response,22,95655,4073,9,0.1,question_agency,question_agency_line,-1,4,6,22,13,-0.222944085,0.288318657,1,,
1,8,13,1,8,80,html-slider-response,80,322017,2317,14,0.1,question_agency,question_agency_line,4,6,8,37,19,-0.076222111,-0.054547049,2,,
1,7,13,1,7,90,html-slider-response,90,363997,2739,14,0.1,question_agency,question_agency_line,4,8,10,50,42,0.050236559,-0.164176363,3,,
1,6,13,1,6,145,html-slider-response,145,588799,1863,0,0.1,question_agency,question_agency_line,-10,5,8,18,25,-0.287053374,-0.160899495,4,,
1,5,13,1,5,158,html-slider-response,158,639217,2775,6,0.1,question_agency,question_agency_line,-4,7,3,26,33,-0.113140315,-0.291825765,5,,
1,10,13,1,10,52,html-slider-response,52,211108,2233,5,0.2,question_agency,question_agency_line,-15,5,7,35,21,-0.139075638,0.069148779,1,,
1,13,13,1,13,68,html-slider-response,68,273101,3094,17,0.2,question_agency,question_agency_line,-3,7,8,29,38,-0.231283173,-0.198095049,2,,
1,14,13,1,14,117,html-slider-response,117,478936,3113,5,0.2,question_agency,question_agency_line,-15,8,9,13,19,0.057344922,-0.004811681,3,,
1,11,13,1,11,130,html-slider-response,130,525445,2564,14,0.2,question_agency,question_agency_line,-6,7,8,30,32,-0.21588043,0.139061007,4,,
1,12,13,1,12,173,html-slider-response,173,701107,2266,17,0.2,question_agency,question_agency_line,-3,7,5,24,28,-0.154873954,-0.186238973,5,,
1,18,13,1,18,49,html-slider-response,49,199860,2104,8,0.3,question_agency,question_agency_line,-22,9,10,25,27,0.135840129,0.249370411,1,,
1,19,13,1,19,65,html-slider-response,65,260993,3208,17,0.3,question_agency,question_agency_line,-13,6,6,14,13,-0.084507005,-0.107054367,2,,
1,17,13,1,17,102,html-slider-response,102,415995,3220,22,0.3,question_agency,question_agency_line,-8,5,8,23,23,-0.063509971,0.171801934,3,,
1,15,13,1,15,133,html-slider-response,133,537310,2852,23,0.3,question_agency,question_agency_line,-7,8,6,31,27,0.078849919,-0.235994797,4,,
1,16,13,1,16,185,html-slider-response,185,747425,1995,25,0.3,question_agency,question_agency_line,-5,8,9,30,26,-0.140490423,-0.029048419,5,,
1,20,13,1,20,25,html-slider-response,25,107122,2450,13,0.4,question_agency,question_agency_line,-27,5,7,16,9,-0.106998655,-0.09281486,1,,
1,21,13,1,21,74,html-slider-response,74,297179,2440,8,0.4,question_agency,question_agency_line,-32,8,7,32,28,0.057638528,0.071892863,2,,
1,22,13,1,22,99,html-slider-response,99,403768,2361,10,0.4,question_agency,question_agency_line,-30,8,7,32,23,0.133815184,-0.079245666,3,,
1,24,13,1,24,127,html-slider-response,127,513863,2361,45,0.4,question_agency,question_agency_line,5,8,6,16,19,0.013096552,0.148844147,4,,
1,23,13,1,23,170,html-slider-response,170,689828,2943,25,0.4,question_agency,question_agency_line,-15,8,7,14,13,-0.286946466,0.245957002,5,,
1,25,13,1,25,37,html-slider-response,37,152307,2401,23,0.5,question_agency,question_agency_line,-27,7,7,25,14,-0.055826,-0.42815783,1,,
1,28,13,1,28,59,html-slider-response,59,237582,2195,16,0.5,question_agency,question_agency_line,-34,7,7,24,18,0.009441486,0.035575071,2,,
1,27,13,1,27,96,html-slider-response,96,392391,6656,23,0.5,question_agency,question_agency_line,-27,6,8,26,21,0.047269727,-0.180458891,3,,
1,26,13,1,26,136,html-slider-response,136,548916,2592,24,0.5,question_agency,question_agency_line,-26,3,6,22,20,-0.087058377,-0.063713607,4,,
1,29,13,1,29,167,html-slider-response,167,677867,3291,29,0.5,question_agency,question_agency_line,-21,7,7,14,26,-0.042280608,0.085637362,5,,
1,32,13,1,32,28,html-slider-response,28,118900,2765,43,0.6,question_agency,question_agency_line,-17,7,7,5,9,-0.355041011,0.336150833,1,,
1,34,13,1,34,86,html-slider-response,86,345907,3689,51,0.6,question_agency,question_agency_line,-9,7,6,19,15,-0.263882018,-0.494497937,2,,
1,33,13,1,33,105,html-slider-response,105,430188,5181,38,0.6,question_agency,question_agency_line,-22,4,8,21,24,0.032025239,0.098695445,3,,
1,30,13,1,30,151,html-slider-response,151,614590,5195,32,0.6,question_agency,question_agency_line,-28,8,7,15,13,-0.358263969,-0.117536388,4,,
1,31,13,1,31,182,html-slider-response,182,736415,3776,50,0.6,question_agency,question_agency_line,-10,6,6,20,17,-0.139961421,-0.13066958,5,,
1,39,13,1,39,34,html-slider-response,34,140894,1988,54,0.7,question_agency,question_agency_line,-16,8,7,10,9,0.082740937,0.009032021,1,,
1,36,13,1,36,62,html-slider-response,62,248764,2157,50,0.7,question_agency,question_agency_line,-20,7,7,15,15,-0.391319029,-0.010901183,2,,
1,35,13,1,35,114,html-slider-response,114,466812,4705,43,0.7,question_agency,question_agency_line,-27,10,9,19,21,-0.305702945,0.460718362,3,,
1,38,13,1,38,124,html-slider-response,124,502491,1718,77,0.7,question_agency,question_agency_line,7,12,12,15,13,0.369046484,0.281619493,4,,
1,37,13,1,37,161,html-slider-response,161,651285,3051,21,0.7,question_agency,question_agency_line,-49,4,9,19,19,-0.494996303,0.08554799,5,,
1,44,13,1,44,46,html-slider-response,46,188739,3237,51,0.8,question_agency,question_agency_line,-29,4,6,13,16,-0.131099818,-0.012658121,1,,
1,41,13,1,41,83,html-slider-response,83,333200,2178,48,0.8,question_agency,question_agency_line,-32,8,6,16,17,-0.014312711,-0.015525893,2,,
1,42,13,1,42,111,html-slider-response,111,453091,1636,79,0.8,question_agency,question_agency_line,-1,9,6,19,20,0.09060657,-0.194881314,3,,
1,40,13,1,40,148,html-slider-response,148,600382,2562,87,0.8,question_agency,question_agency_line,7,7,5,12,13,0.305052099,0.023652477,4,,
1,43,13,1,43,176,html-slider-response,176,712772,2654,74,0.8,question_agency,question_agency_line,-6,4,6,19,18,-0.236201731,0.076197983,5,,
1,45,13,1,45,31,html-slider-response,31,129888,1971,70,0.9,question_agency,question_agency_line,-20,6,2,7,6,-0.261100635,-0.207036541,1,,
1,48,13,1,48,77,html-slider-response,77,310684,4488,72,0.9,question_agency,question_agency_line,-18,6,6,22,21,-0.191002244,0.121384545,2,,
1,47,13,1,47,93,html-slider-response,93,376714,3692,30,0.9,question_agency,question_agency_line,-60,5,5,17,13,-0.165099589,0.085592589,3,,
1,46,13,1,46,154,html-slider-response,154,625917,2323,80,0.9,question_agency,question_agency_line,-10,7,5,19,20,-0.122500948,-0.289775351,4,,
1,49,13,1,49,179,html-slider-response,179,723626,1850,74,0.9,question_agency,question_agency_line,-16,5,8,16,21,0.00267734,-0.109569975,5,,
1,54,13,1,54,43,html-slider-response,43,176482,3060,100,1,question_agency,question_agency_line,0,6,6,18,17,0.123012467,0.109425335,1,,
1,52,13,1,52,71,html-slider-response,71,285729,3617,100,1,question_agency,question_agency_line,0,8,9,9,8,0.26029364,-0.037565017,2,,
1,50,13,1,50,108,html-slider-response,108,442444,3252,100,1,question_agency,question_agency_line,0,10,7,22,22,0.244163366,0.077670662,3,,
1,53,13,1,53,142,html-slider-response,142,577924,3377,100,1,question_agency,question_agency_line,0,7,8,16,15,0.117823719,0.010111404,4,,
1,51,13,1,51,164,html-slider-response,164,665573,5277,84,1,question_agency,question_agency_line,-16,5,9,20,21,-0.030246953,0.179149013,5,,
1,3,14,1,3,37,html-slider-response,37,173315,2261,0,0,question_agency,question_agency_line,0,10,7,9,5,-0.062572117,0.171983427,1,,
1,4,14,1,4,65,html-slider-response,65,287747,2751,0,0,question_agency,question_agency_line,0,5,7,9,11,-0.172525695,0.108752152,2,,
1,0,14,1,0,105,html-slider-response,105,441483,2108,0,0,question_agency,question_agency_line,0,6,6,8,5,-0.258446452,0.126183929,3,,
1,2,14,1,2,145,html-slider-response,145,607379,3160,25,0,question_agency,question_agency_line,25,8,8,10,10,0.230533464,-0.11929733,4,,
1,1,14,1,1,170,html-slider-response,170,705483,3661,0,0,question_agency,question_agency_line,0,7,8,17,16,-0.181823776,0.354711383,5,,
1,9,14,1,9,22,html-slider-response,22,107268,4063,3,0.1,question_agency,question_agency_line,-7,9,6,7,6,0.229645529,-0.027230956,1,,
1,8,14,1,8,59,html-slider-response,59,264659,3016,0,0.1,question_agency,question_agency_line,-10,4,8,7,14,0.001853449,-0.31867429,2,,
1,7,14,1,7,108,html-slider-response,108,453219,2716,0,0.1,question_agency,question_agency_line,-10,5,7,10,3,-0.266048214,-0.120911867,3,,
1,6,14,1,6,133,html-slider-response,133,560812,4502,0,0.1,question_agency,question_agency_line,-10,8,10,15,14,0.146263643,0.166457036,4,,
1,5,14,1,5,161,html-slider-response,161,671107,2286,9,0.1,question_agency,question_agency_line,-1,7,6,10,8,-0.138644497,0.290738817,5,,
1,10,14,1,10,52,html-slider-response,52,237459,5661,0,0.2,question_agency,question_agency_line,-20,8,6,9,3,-0.531058717,-0.466338656,1,,
1,11,14,1,11,74,html-slider-response,74,324579,3773,0,0.2,question_agency,question_agency_line,-20,6,7,8,7,0.378874069,-0.193131991,2,,
1,14,14,1,14,99,html-slider-response,99,419371,1955,0,0.2,question_agency,question_agency_line,-20,4,7,8,11,-0.471487072,0.200788769,3,,
1,12,14,1,12,124,html-slider-response,124,522147,9364,17,0.2,question_agency,question_agency_line,-3,9,4,11,8,0.120490043,0.066821261,4,,
1,13,14,1,13,185,html-slider-response,185,764660,3927,0,0.2,question_agency,question_agency_line,-20,7,5,19,13,-0.325419974,-0.18994616,5,,
1,16,14,1,16,43,html-slider-response,43,197636,3009,71,0.3,question_agency,question_agency_line,41,8,6,7,5,0.122782126,-0.226375483,1,,
1,17,14,1,17,71,html-slider-response,71,311787,3411,1,0.3,question_agency,question_agency_line,-29,5,10,10,9,0.013239039,-0.063812715,2,,
1,19,14,1,19,93,html-slider-response,93,397164,2272,0,0.3,question_agency,question_agency_line,-30,10,9,9,9,-0.079763422,-0.198226733,3,,
1,18,14,1,18,136,html-slider-response,136,572196,2376,0,0.3,question_agency,question_agency_line,-30,7,6,9,7,-0.011122417,-0.338806055,4,,
1,15,14,1,15,179,html-slider-response,179,739492,2319,72,0.3,question_agency,question_agency_line,42,9,8,13,13,-0.131504984,0.031948641,5,,
1,21,14,1,21,31,html-slider-response,31,148971,7115,61,0.4,question_agency,question_agency_line,21,5,5,7,6,-0.245501286,0.181050768,1,,
1,24,14,1,24,77,html-slider-response,77,339043,5458,66,0.4,question_agency,question_agency_line,26,2,8,6,4,-0.093163074,0.068548313,2,,
1,23,14,1,23,120,html-slider-response,120,498211,2396,11,0.4,question_agency,question_agency_line,-29,5,5,8,7,-0.316994177,0.360337814,3,,
1,22,14,1,22,142,html-slider-response,142,595203,1906,79,0.4,question_agency,question_agency_line,39,5,8,8,9,-0.277978741,0.292520884,4,,
1,20,14,1,20,167,html-slider-response,167,692811,2305,7,0.4,question_agency,question_agency_line,-33,6,9,11,10,-0.404687253,0.523762503,5,,
1,28,14,1,28,25,html-slider-response,25,120452,4173,71,0.5,question_agency,question_agency_line,21,6,5,7,6,-0.009017333,-0.23009235,1,,
1,27,14,1,27,83,html-slider-response,83,362420,2810,53,0.5,question_agency,question_agency_line,3,8,10,8,17,0.260823753,-0.034390742,2,,
1,25,14,1,25,96,html-slider-response,96,408404,2228,77,0.5,question_agency,question_agency_line,27,7,6,8,4,0.319863679,-0.395200073,3,,
1,29,14,1,29,127,html-slider-response,127,534692,3528,11,0.5,question_agency,question_agency_line,-39,7,7,3,4,-0.324120856,-0.150613477,4,,
1,26,14,1,26,173,html-slider-response,173,716716,2580,93,0.5,question_agency,question_agency_line,43,6,4,18,10,0.272428825,0.030781113,5,,
1,34,14,1,34,34,html-slider-response,34,162044,4058,73,0.6,question_agency,question_agency_line,13,9,9,8,7,-0.295477215,0.027194853,1,,
1,32,14,1,32,62,html-slider-response,62,275979,2304,80,0.6,question_agency,question_agency_line,20,7,8,9,8,0.174652604,-0.200517562,2,,
